Timestamp,Accel_X_g,Accel_Y_g,Accel_Z_g
02:26:22.031,-0.1284,-0.2402,-1.3496
02:26:22.046,-0.0474,-0.2461,-1.0811
02:26:22.057,0.0405,-0.2378,-0.8901
02:26:22.069,0.1172,-0.1597,-0.6724
02:26:22.082,0.2241,0.0718,-0.4028
02:26:22.094,0.2949,0.1392,-0.2041
02:26:22.105,0.3208,0.1611,0.0352
02:26:22.120,0.2705,0.1455,0.2344
02:26:22.131,0.2617,-0.0698,0.3438
02:26:22.142,0.1768,0.0581,0.5894
02:26:22.153,0.1938,0.0142,0.7236
02:26:22.164,0.0908,0.0054,0.8203
02:26:22.176,0.0293,0.0312,0.7812
02:26:22.187,0.0117,0.0498,0.7769
02:26:22.198,0.0415,0.0728,0.8643
02:26:22.210,-0.0054,0.1694,0.8359
02:26:22.221,-0.0068,0.1641,0.8657
02:26:22.232,0.0063,0.1714,0.9180
02:26:22.243,0.0239,0.1411,0.9644
02:26:22.254,0.0278,0.1074,1.0234
02:26:22.265,0.0098,0.1025,1.0693
02:26:22.277,-0.0078,0.1191,1.0723
02:26:22.290,-0.0195,0.1440,1.0830
02:26:22.301,-0.0273,0.1509,1.0166
02:26:22.312,-0.0391,0.1040,1.1167
02:26:22.323,0.0029,0.1489,1.2124
02:26:22.334,0.0420,0.1465,1.2466
02:26:22.346,0.0269,0.1323,1.2363
02:26:22.357,0.0249,0.1240,1.2007
02:26:22.368,0.0454,0.1221,1.1895
02:26:22.379,0.0371,0.1138,1.1909
02:26:22.390,0.0596,0.1025,1.1992
02:26:22.402,0.0708,0.1084,1.2051
02:26:22.413,0.0601,0.0879,1.2280
02:26:22.424,0.0581,0.0781,1.2163
02:26:22.437,0.0503,0.0854,1.2075
02:26:22.448,0.0498,0.0913,1.1807
02:26:22.459,0.0566,0.0913,1.1650
02:26:22.471,0.0688,0.0923,1.1636
02:26:22.482,0.0854,0.0884,1.1323
02:26:22.493,0.0923,0.0903,1.1167
02:26:22.504,0.0967,0.0986,1.0884
02:26:22.516,0.0889,0.0962,1.0635
02:26:22.527,0.0854,0.0898,1.0479
02:26:22.538,0.0723,0.0928,1.0435
02:26:22.549,0.0630,0.0908,1.0396
02:26:22.560,0.0493,0.0918,1.0356
02:26:22.571,0.0732,0.0894,1.0073
02:26:22.582,0.0767,0.0825,1.0049
02:26:22.593,0.0791,0.0757,1.0122
02:26:22.604,0.1035,0.0908,1.0010
02:26:22.616,0.0874,0.0747,1.0215
02:26:22.627,0.1050,0.0781,0.9961
02:26:22.638,0.0679,0.0688,1.0132
02:26:22.649,0.0752,0.0674,0.9976
02:26:22.660,0.0571,0.0493,0.9966
02:26:22.671,0.0352,0.0415,1.0229
02:26:22.682,0.0557,0.0381,1.0234
02:26:22.693,0.0449,0.0400,1.0259
02:26:22.705,0.0405,0.0444,1.0156
02:26:22.717,0.0308,0.0547,1.0117
02:26:22.728,0.0249,0.0562,1.0161
02:26:22.739,0.0220,0.0586,1.0200
02:26:22.750,0.0220,0.0444,1.0220
02:26:22.761,0.0264,0.0269,1.0190
02:26:22.773,0.0288,0.0288,1.0195
02:26:22.786,0.0200,0.0146,1.0293
02:26:22.797,0.0156,0.0181,1.0483
02:26:22.810,0.0278,0.0210,1.0479
02:26:22.821,0.0156,-0.0010,1.0527
02:26:22.832,0.0225,0.0044,1.0391
02:26:22.845,0.0195,-0.0005,1.0342
02:26:22.857,0.0229,-0.0005,1.0400
02:26:22.868,-0.0015,-0.0054,1.0518
02:26:22.879,0.0122,-0.0156,1.0464
02:26:22.890,0.0010,-0.0088,1.0508
02:26:22.901,-0.0020,-0.0146,1.0649
02:26:22.914,0.0093,0.0117,1.0601
02:26:22.925,-0.0063,0.0205,1.0703
02:26:22.936,0.0005,0.0088,1.0708
02:26:22.950,-0.0112,-0.0034,1.0771
02:26:22.961,-0.0151,-0.0137,1.0742
02:26:22.972,-0.0142,-0.0176,1.0684
02:26:22.989,-0.0063,-0.0103,1.0464
02:26:23.000,-0.0059,0.0103,1.0425
02:26:23.015,-0.0049,0.0220,1.0356
02:26:23.028,-0.0073,0.0176,1.0400
02:26:23.041,0.0000,0.0117,1.0186
02:26:23.054,0.0073,0.0078,1.0054
02:26:23.066,0.0146,0.0176,0.9985
02:26:23.078,0.0024,0.0068,1.0059
02:26:23.089,0.0117,0.0146,0.9917
02:26:23.101,0.0127,0.0068,0.9990
02:26:23.114,0.0249,0.0063,0.9995
02:26:23.126,0.0186,0.0029,0.9971
02:26:23.142,-0.0112,0.0117,1.0059
02:26:23.154,-0.0078,0.0181,1.0059
02:26:23.167,-0.0073,0.0151,1.0005
02:26:23.180,0.0083,0.0161,0.9854
02:26:23.192,-0.0186,0.0059,0.9893
02:26:23.206,-0.0020,0.0024,1.0269
02:26:23.218,0.0464,0.0732,1.2358
02:26:23.229,-0.0103,-0.0415,0.7793
02:26:23.242,0.0088,-0.0205,0.8955
02:26:23.254,-0.0254,-0.0586,0.9272
02:26:23.267,0.0049,0.0884,1.1240
02:26:23.281,0.0098,0.0029,0.9414
02:26:23.292,0.0210,0.0283,1.0176
02:26:23.304,0.0161,0.0015,1.0332
02:26:23.316,-0.0503,0.0288,0.9858
02:26:23.327,-0.0078,0.0098,1.0396
02:26:23.342,0.0259,0.0229,0.9863
02:26:23.356,-0.0034,0.0430,0.9829
02:26:23.374,-0.0024,0.0483,1.0093
02:26:23.387,-0.0112,-0.0132,1.0850
02:26:23.400,-0.0186,-0.0361,1.0259
02:26:23.412,-0.0190,-0.0103,0.8906
02:26:23.423,0.0034,-0.0566,1.0195
02:26:23.435,-0.0308,-0.0312,1.0757
02:26:23.447,-0.0186,-0.0283,0.9775
02:26:23.459,-0.0059,0.0166,1.0029
02:26:23.471,-0.0361,0.0308,1.0112
02:26:23.482,0.0254,0.0146,1.0029
02:26:23.495,0.0234,0.0054,1.0171
02:26:23.507,0.0278,-0.0146,1.0034
02:26:23.521,0.0122,0.0005,0.9902
02:26:23.535,-0.0322,-0.0156,0.9858
02:26:23.551,0.0444,0.0029,1.0312
02:26:23.564,0.0283,-0.0142,1.0034
02:26:23.580,0.0215,0.0298,1.0186
02:26:23.593,0.1313,-0.0547,1.0654
02:26:23.605,0.0137,-0.0347,0.9727
02:26:23.619,0.0034,0.0078,1.0381
02:26:23.631,-0.0127,0.0171,0.9355
02:26:23.643,0.0161,0.0078,0.9951
02:26:23.657,0.0117,-0.0024,1.0103
02:26:23.672,-0.0049,0.0293,0.9985
02:26:23.687,0.0342,0.0132,1.0181
02:26:23.701,0.0020,0.0015,0.9932
02:26:23.713,0.0361,0.0122,1.0093
02:26:23.725,0.0259,-0.0039,0.9995
02:26:23.736,-0.0044,-0.0078,1.0020
02:26:23.747,0.0073,-0.0107,0.9956
02:26:23.758,-0.0005,0.0112,0.9902
02:26:23.773,-0.0034,0.0151,1.0073
02:26:23.786,0.0142,-0.0059,1.0088
02:26:23.797,0.0156,0.0068,1.0132
02:26:23.808,0.0210,-0.0034,1.0083
02:26:23.822,0.0049,-0.0107,0.9980
02:26:23.836,0.0059,-0.0078,0.9985
02:26:23.847,0.0029,0.0049,0.9897
02:26:23.859,0.0068,0.0059,0.9980
02:26:23.870,0.0044,0.0073,0.9893
02:26:23.882,0.0054,0.0059,0.9990
02:26:23.893,0.0093,-0.0005,1.0024
02:26:23.904,0.0132,0.0039,0.9966
02:26:23.916,0.0146,-0.0083,1.0332
02:26:23.927,0.0259,0.0059,0.9834
02:26:23.938,0.0073,0.0039,0.9692
02:26:23.949,0.0225,-0.0049,1.0591
02:26:23.961,0.0205,0.0122,0.9541
02:26:23.974,-0.0068,0.0107,1.0098
02:26:23.986,0.0024,-0.0127,1.0210
02:26:23.998,-0.0078,0.0151,1.0049
02:26:24.009,0.0190,-0.0210,0.9590
02:26:24.020,-0.0703,-0.0957,0.9897
02:26:24.033,0.0444,0.0298,0.9883
02:26:24.049,-0.0161,-0.0244,0.9756
02:26:24.062,0.0327,-0.0049,1.0122
02:26:24.073,-0.0122,0.0049,0.9634
02:26:24.085,0.0083,0.0171,1.0078
02:26:24.097,0.0161,0.0483,1.0044
02:26:24.117,0.0283,0.0024,0.9971
02:26:24.128,0.0146,-0.0044,1.0000
02:26:24.140,0.0190,0.0181,0.9819
02:26:24.154,0.0225,-0.0176,0.9980
02:26:24.168,0.0151,-0.0088,0.9985
02:26:24.179,0.0176,-0.0049,1.0527
02:26:24.194,0.0137,0.0156,0.9771
02:26:24.206,0.0068,-0.0117,1.0034
02:26:24.218,0.0010,-0.0151,1.0088
02:26:24.231,0.0146,0.0068,1.0127
02:26:24.246,0.0547,-0.0195,0.9829
02:26:24.259,0.0220,0.0029,0.9785
02:26:24.274,0.0156,0.0205,0.9946
02:26:24.286,-0.0029,-0.0122,1.0088
02:26:24.306,0.0137,-0.0078,1.0044
02:26:24.318,0.0312,0.0190,0.9878
02:26:24.329,0.0020,-0.0098,0.9814
02:26:24.340,0.0215,0.0054,0.9922
02:26:24.353,0.0342,0.0073,1.0156
02:26:24.364,0.0239,0.0073,1.0083
02:26:24.377,0.0820,-0.0630,1.0381
02:26:24.389,0.0098,-0.0400,1.0039
02:26:24.401,0.0078,-0.0093,1.0117
02:26:24.421,-0.0479,-0.0581,1.0234
02:26:24.432,-0.0005,0.0205,0.9956
02:26:24.445,-0.0010,-0.0352,0.9937
02:26:24.461,0.0190,-0.0151,1.0020
02:26:24.474,0.0020,-0.0171,1.0146
02:26:24.485,0.0039,-0.0181,1.0107
02:26:24.496,0.0366,0.0107,1.0127
02:26:24.508,0.0142,-0.0024,0.9771
02:26:24.525,-0.0127,0.0117,0.9961
02:26:24.538,0.0068,0.0293,0.9976
02:26:24.550,0.0244,0.0454,1.0024
02:26:24.561,0.0181,0.0342,1.0088
02:26:24.573,0.0190,0.0244,1.0078
02:26:24.586,0.0210,-0.0044,1.0127
02:26:24.600,0.0098,-0.0024,0.9917
02:26:24.612,0.0034,-0.0029,1.0000
02:26:24.623,-0.0005,0.0029,0.9980
02:26:24.637,0.0034,0.0073,0.9990
02:26:24.649,0.0078,0.0024,0.9961
02:26:24.660,0.0176,0.0073,1.0020
02:26:24.673,0.0137,-0.0015,0.9971
02:26:24.686,0.0283,0.0054,0.9868
02:26:24.697,0.0015,0.0029,1.0122
02:26:24.708,0.0093,0.0073,1.0044
02:26:24.721,-0.0283,0.0063,0.9819
02:26:24.736,0.0112,0.0068,1.0010
02:26:24.749,0.0190,-0.0010,0.9888
02:26:24.762,0.0239,-0.0215,0.9976
02:26:24.776,0.0044,-0.0093,1.0122
02:26:24.788,0.0923,-0.0181,1.0405
02:26:24.800,0.0068,-0.0029,0.9834
02:26:24.811,-0.0322,-0.0034,1.0195
02:26:24.827,0.0195,-0.0010,0.9951
02:26:24.839,-0.0103,0.0039,1.0034
02:26:24.853,0.0210,0.0068,1.0078
02:26:24.864,-0.0254,0.0005,0.9561
02:26:24.876,-0.0054,0.0000,1.0029
02:26:24.888,-0.0054,0.0024,0.9854
02:26:24.900,0.0083,-0.0078,0.9990
02:26:24.911,-0.0112,-0.0015,0.9771
02:26:24.922,0.0039,-0.0181,1.0068
02:26:24.934,-0.0283,0.0039,0.9795
02:26:24.945,0.0146,-0.0127,1.0034
02:26:24.958,0.0146,0.0142,1.0234
02:26:24.970,0.0122,0.0210,0.9917
02:26:24.982,0.0029,-0.0024,1.0039
02:26:24.995,0.0244,0.0039,1.0020
02:26:25.006,-0.0117,-0.0024,0.9976
02:26:25.017,0.0249,-0.0122,1.0039
02:26:25.028,0.0210,-0.0254,0.9878
02:26:25.040,-0.0029,0.0200,0.9673
02:26:25.051,-0.0068,-0.0049,0.9932
02:26:25.062,0.0454,-0.0024,1.0200
02:26:25.074,-0.0015,0.0146,0.9927
02:26:25.095,-0.0005,-0.0029,1.0059
02:26:25.106,0.0010,0.0034,0.9971
02:26:25.121,0.0044,-0.0029,0.9883
02:26:25.133,0.0098,-0.0015,1.0063
02:26:25.146,0.0259,0.0068,1.0083
02:26:25.159,0.0127,0.0098,1.0127
02:26:25.171,0.0107,-0.0063,0.9980
02:26:25.184,0.0229,-0.0015,1.0049
02:26:25.198,0.0137,0.0117,0.9927
02:26:25.212,0.0044,-0.0015,0.9941
02:26:25.227,0.0107,-0.0161,1.0073
02:26:25.241,-0.0078,0.0029,0.9902
02:26:25.252,0.0098,0.0078,1.0034
02:26:25.264,0.0127,0.0010,1.0063
02:26:25.275,0.0181,0.0020,1.0029
02:26:25.292,0.0181,0.0063,0.9922
02:26:25.306,-0.0039,-0.0112,1.0005
02:26:25.318,0.0068,0.0000,0.9863
02:26:25.329,0.0034,-0.0039,1.0024
02:26:25.341,0.0093,0.0000,1.0054
02:26:25.352,0.0127,0.0010,0.9990
02:26:25.364,0.0117,0.0015,0.9980
02:26:25.376,0.0054,-0.0098,1.0117
02:26:25.387,0.0103,-0.0068,1.0054
02:26:25.404,0.0107,-0.0005,1.0039
02:26:25.415,0.0122,0.0005,0.9980
02:26:25.433,0.0083,0.0063,1.0024
02:26:25.447,0.0068,-0.0034,1.0005
02:26:25.460,0.0068,0.0034,0.9971
02:26:25.473,0.0049,0.0029,1.0024
02:26:25.487,0.0088,0.0039,0.9985
02:26:25.498,0.0107,0.0029,0.9971
02:26:25.510,0.0112,0.0010,1.0024
02:26:25.522,0.0161,-0.0029,0.9966
02:26:25.534,0.0273,0.0078,1.0020
02:26:25.546,0.0078,-0.0063,0.9746
02:26:25.560,0.0156,-0.0176,1.0449
02:26:25.571,0.0171,-0.0010,0.9756
02:26:25.582,0.0000,0.0308,1.0020
02:26:25.593,0.0073,0.0039,1.0024
02:26:25.604,0.0176,0.0210,0.9844
02:26:25.615,-0.0181,0.0098,0.9917
02:26:25.626,-0.0029,0.0161,0.9995
02:26:25.639,0.1064,-0.0005,1.0840
02:26:25.656,0.0190,-0.0122,1.0063
02:26:25.668,0.0107,-0.0112,1.0376
02:26:25.679,0.0347,0.0303,0.9937
02:26:25.690,-0.0391,-0.0093,0.9692
02:26:25.701,0.0156,-0.0068,1.0493
02:26:25.713,0.0039,0.0054,1.0049
02:26:25.724,0.0083,0.0039,0.9468
02:26:25.735,0.0293,0.0322,1.0063
02:26:25.747,-0.0132,-0.0063,0.9980
02:26:25.769,0.0244,0.0088,1.0073
02:26:25.780,0.0215,-0.0049,1.0210
02:26:25.793,0.0166,0.0103,0.9980
02:26:25.805,-0.0029,-0.0088,1.0186
02:26:25.817,0.0078,0.0103,0.9893
02:26:25.832,0.0029,0.0015,0.9839
02:26:25.848,-0.0005,-0.0166,1.0229
02:26:25.859,0.0205,0.0483,0.9937
02:26:25.870,0.0068,0.0156,0.9863
02:26:25.884,0.0386,-0.0220,1.0537
02:26:25.897,0.0288,-0.0122,1.0078
02:26:25.913,0.0107,0.0034,0.9961
02:26:25.926,-0.0005,-0.0098,1.0083
02:26:25.940,-0.0083,-0.0073,0.9844
02:26:25.954,0.0166,0.0039,1.0059
02:26:25.968,0.0000,0.0044,0.9922
02:26:25.980,0.0073,0.0088,0.9956
02:26:25.992,-0.0181,-0.0103,0.9717
02:26:26.005,0.0093,0.0342,0.9985
02:26:26.017,0.0171,-0.0166,1.0068
02:26:26.029,0.0293,0.0132,1.0098
02:26:26.040,0.0288,-0.0142,1.0200
02:26:26.056,0.0098,-0.0132,1.0073
02:26:26.068,-0.0010,0.0259,0.9932
02:26:26.079,-0.0078,-0.0132,0.9854
02:26:26.090,0.0044,-0.0010,0.9985
02:26:26.101,0.0068,0.0024,0.9785
02:26:26.115,0.0044,0.0029,0.9976
02:26:26.129,0.0308,0.0098,0.9976
02:26:26.141,0.0039,0.0005,1.0190
02:26:26.154,0.0093,-0.0093,0.9873
02:26:26.166,-0.0073,-0.0078,1.0112
02:26:26.177,-0.0010,-0.0034,0.9937
02:26:26.190,-0.0015,0.0000,1.0024
02:26:26.203,-0.0054,0.0039,1.0103
02:26:26.215,0.0190,0.0127,0.9868
02:26:26.227,0.0205,0.0093,0.9922
02:26:26.239,0.0205,-0.0029,1.0034
02:26:26.251,0.0127,-0.0034,1.0024
02:26:26.269,0.0142,-0.0063,1.0078
02:26:26.280,0.0176,0.0054,0.9980
02:26:26.292,0.0151,0.0039,0.9873
02:26:26.305,0.0127,0.0000,0.9995
02:26:26.319,0.0103,0.0034,0.9873
02:26:26.331,-0.0034,-0.0098,1.0034
02:26:26.343,0.0166,0.0020,0.9951
02:26:26.356,0.0215,0.0093,0.9917
02:26:26.370,0.0039,0.0039,1.0132
02:26:26.381,0.0317,-0.0020,0.9956
02:26:26.393,-0.0171,0.0200,0.9932
02:26:26.404,0.0376,-0.0181,1.0229
02:26:26.415,0.0059,-0.0161,0.9785
02:26:26.432,0.0005,0.0088,0.9868
02:26:26.446,-0.0054,0.0083,0.9829
02:26:26.460,0.0352,0.0083,1.0288
02:26:26.472,-0.0137,-0.0034,0.9863
02:26:26.490,0.0020,-0.0054,1.0029
02:26:26.502,-0.0337,-0.0210,0.9824
02:26:26.516,-0.0083,-0.0005,0.9893
02:26:26.527,-0.0151,0.0347,1.0063
02:26:26.540,0.0083,0.0225,0.9897
02:26:26.552,0.0234,-0.0269,0.9912
02:26:26.566,0.0454,-0.0181,1.0493
02:26:26.578,0.0195,-0.0020,0.9907
02:26:26.589,0.0542,-0.0049,1.0132
02:26:26.605,0.0059,0.0166,0.9512
02:26:26.617,0.0059,-0.0112,1.0503
02:26:26.628,0.0405,-0.0107,0.9834
02:26:26.644,0.0225,-0.0024,1.0186
02:26:26.656,-0.0312,-0.0044,0.9775
02:26:26.672,0.0000,0.0073,1.0039
02:26:26.685,0.0103,-0.0005,0.9609
02:26:26.697,0.0308,0.0039,0.9868
02:26:26.710,0.0176,-0.0039,0.9912
02:26:26.724,0.0205,-0.0054,0.9956
02:26:26.735,0.0029,-0.0200,1.0063
02:26:26.752,-0.0073,-0.0146,0.9805
02:26:26.764,0.0063,0.0049,1.0137
02:26:26.775,0.0093,-0.0103,1.0034
02:26:26.790,0.0386,-0.0068,1.0308
02:26:26.802,0.0024,-0.0063,1.0171
02:26:26.813,0.0186,-0.0015,0.9951
02:26:26.826,0.0229,-0.0029,0.9946
02:26:26.838,-0.0078,0.0176,1.0044
02:26:26.853,0.0176,-0.0024,1.0088
02:26:26.865,0.0020,-0.0088,0.9888
02:26:26.876,0.0049,0.0049,1.0093
02:26:26.887,-0.0005,-0.0039,1.0112
02:26:26.899,0.0127,-0.0073,1.0000
02:26:26.912,0.0181,0.0024,0.9985
02:26:26.926,-0.0029,-0.0112,0.9980
02:26:26.939,-0.0151,-0.0024,0.9932
02:26:26.952,0.0020,0.0010,1.0068
02:26:26.966,0.0234,0.0073,1.0000
02:26:26.980,0.0249,0.0181,1.0107
02:26:26.996,0.0464,0.0088,1.0195
02:26:27.009,0.0073,0.0020,1.0020
02:26:27.029,-0.0059,-0.0190,1.0156
02:26:27.041,-0.0181,-0.0171,0.9824
02:26:27.053,-0.0166,-0.0024,1.0000
02:26:27.065,0.0137,0.0166,0.9966
02:26:27.087,0.0332,0.0200,0.9941
02:26:27.099,0.0244,0.0029,1.0039
02:26:27.110,-0.0010,-0.0146,1.0044
02:26:27.123,0.0073,-0.0190,1.0034
02:26:27.134,-0.0103,-0.0205,1.0073
02:26:27.150,0.0068,-0.0029,0.9990
02:26:27.162,0.0239,0.0151,0.9971
02:26:27.176,0.0190,0.0234,0.9961
02:26:27.189,0.0078,-0.0029,1.0024
02:26:27.201,0.0103,-0.0010,0.9917
02:26:27.214,0.0024,-0.0161,0.9976
02:26:27.225,0.0117,-0.0112,0.9976
02:26:27.242,0.0195,-0.0029,1.0034
02:26:27.256,0.0322,0.0156,0.9927
02:26:27.269,0.0029,0.0029,1.0049
02:26:27.280,0.0171,0.0073,0.9907
02:26:27.291,-0.0068,-0.0068,1.0142
02:26:27.304,0.0073,-0.0005,0.9951
02:26:27.315,-0.0039,-0.0107,1.0107
02:26:27.328,0.0117,0.0015,0.9961
02:26:27.345,0.0161,0.0010,0.9912
02:26:27.358,0.0117,-0.0059,0.9971
02:26:27.369,0.0054,0.0010,1.0063
02:26:27.382,-0.0054,-0.0034,1.0117
02:26:27.394,-0.0010,-0.0005,1.0068
02:26:27.406,0.0239,0.0063,0.9834
02:26:27.417,-0.0078,0.0000,0.9932
02:26:27.428,-0.0161,0.0054,1.0137
02:26:27.442,0.0171,0.0103,1.0010
02:26:27.453,0.0342,0.0156,0.9858
02:26:27.466,0.0337,0.0073,1.0210
02:26:27.477,0.0454,0.0117,1.0122
02:26:27.488,0.0137,-0.0039,0.9990
02:26:27.502,0.0029,-0.0127,0.9990
02:26:27.514,-0.0156,-0.0161,1.0010
02:26:27.527,-0.0205,-0.0078,0.9805
02:26:27.538,-0.0117,0.0044,0.9863
02:26:27.556,0.0112,0.0200,0.9990
02:26:27.567,0.0234,0.0161,0.9927
02:26:27.578,0.0293,0.0044,1.0132
02:26:27.590,0.0093,-0.0103,1.0029
02:26:27.605,0.0264,-0.0073,1.0117
02:26:27.617,-0.0054,-0.0015,0.9858
02:26:27.631,-0.0151,-0.0024,0.9722
02:26:27.644,0.0068,0.0283,0.9961
02:26:27.658,0.0112,0.0088,0.9917
02:26:27.672,0.0044,0.0010,0.9932
02:26:27.684,0.0073,-0.0015,1.0151
02:26:27.698,0.0098,-0.0010,1.0015
02:26:27.710,0.0308,-0.0063,1.0151
02:26:27.721,-0.0679,0.0327,1.0054
02:26:27.733,-0.0112,0.0010,0.9702
02:26:27.746,-0.0049,0.0049,1.0244
02:26:27.758,0.0010,0.0117,1.0054
02:26:27.769,-0.0146,-0.0112,0.9937
02:26:27.781,-0.0015,-0.0020,0.9990
02:26:27.792,0.0166,0.0029,0.9888
02:26:27.807,0.0278,0.0029,1.0132
02:26:27.819,0.0244,0.0073,1.0059
02:26:27.834,-0.0005,0.0034,0.9858
02:26:27.846,-0.0029,0.0020,1.0010
02:26:27.871,-0.0049,0.0059,0.9893
02:26:27.882,-0.0049,0.0049,0.9971
02:26:27.894,0.0142,0.0020,1.0083
02:26:27.906,0.0137,0.0020,1.0093
02:26:27.917,0.0234,0.0068,1.0088
02:26:27.929,0.0249,-0.0024,1.0156
02:26:27.941,0.0146,-0.0054,0.9951
02:26:27.954,0.0054,-0.0020,1.0029
02:26:27.965,-0.0039,-0.0063,1.0005
02:26:27.976,-0.0068,-0.0029,0.9854
02:26:27.989,-0.0034,0.0034,0.9893
02:26:28.002,0.0127,0.0132,1.0029
02:26:28.016,0.0239,0.0054,0.9990
02:26:28.027,0.0215,-0.0015,1.0112
02:26:28.041,0.0156,-0.0068,1.0088
02:26:28.053,0.0073,-0.0083,1.0029
02:26:28.064,-0.0020,-0.0073,1.0015
02:26:28.077,-0.0083,0.0000,0.9946
02:26:28.089,0.0024,0.0054,0.9971
02:26:28.101,0.0083,0.0112,1.0029
02:26:28.114,0.0127,0.0063,1.0054
02:26:28.130,0.0288,0.0088,1.0156
02:26:28.141,0.0088,0.0005,0.9575
02:26:28.154,-0.0107,0.0010,0.9922
02:26:28.166,0.0039,-0.0073,1.0020
02:26:28.179,0.0049,0.0103,1.0063
02:26:28.190,-0.0498,0.0190,0.9961
02:26:28.208,0.0020,0.0024,0.9707
02:26:28.220,0.0210,-0.0044,1.0327
02:26:28.232,0.0239,0.0073,1.0366
02:26:28.244,0.0137,0.0098,1.0151
02:26:28.256,-0.0010,-0.0029,0.9995
02:26:28.269,-0.0015,0.0176,0.9995
02:26:28.281,-0.0425,0.0020,0.9800
02:26:28.295,-0.0220,-0.0005,0.9541
02:26:28.310,0.0181,-0.0063,1.0210
02:26:28.321,0.0435,0.0156,0.9897
02:26:28.333,0.0210,-0.0063,0.9902
02:26:28.344,-0.0239,0.0249,1.0312
02:26:28.355,0.0024,-0.0127,1.0034
02:26:28.366,0.0132,-0.0049,1.0088
02:26:28.377,0.0049,0.0049,0.9995
02:26:28.389,-0.0254,0.0005,0.9507
02:26:28.400,0.0078,-0.0015,0.9712
02:26:28.414,0.0186,0.0005,0.9980
02:26:28.426,0.0186,0.0029,1.0103
02:26:28.441,0.0327,0.0112,1.0107
02:26:28.455,0.0132,-0.0029,1.0103
02:26:28.469,0.0020,-0.0010,1.0039
02:26:28.481,0.0059,0.0063,1.0049
02:26:28.496,0.0078,0.0093,0.9985
02:26:28.509,0.0103,0.0044,0.9976
02:26:28.520,0.0078,0.0029,0.9980
02:26:28.531,0.0078,0.0010,1.0010
02:26:28.543,0.0117,-0.0078,1.0020
02:26:28.554,0.0171,0.0010,1.0098
02:26:28.569,0.0200,0.0063,1.0039
02:26:28.580,0.0137,0.0029,0.9966
02:26:28.592,0.0049,-0.0049,0.9937
02:26:28.606,0.0000,-0.0034,0.9995
02:26:28.617,-0.0063,-0.0010,1.0010
02:26:28.628,0.0005,-0.0010,0.9941
02:26:28.641,0.0107,0.0073,1.0015
02:26:28.653,0.0161,0.0059,1.0010
02:26:28.665,0.0186,0.0020,1.0078
02:26:28.677,0.0137,-0.0024,1.0088
02:26:28.690,0.0088,-0.0005,1.0039
02:26:28.703,0.0044,-0.0034,0.9956
02:26:28.718,0.0015,0.0093,0.9976
02:26:28.730,0.0034,0.0010,0.9937
02:26:28.742,0.0005,-0.0103,1.0142
02:26:28.755,0.0215,0.0068,1.0015
02:26:28.767,0.0029,-0.0029,0.9751
02:26:28.786,0.0132,0.0083,0.9775
02:26:28.797,0.0181,0.0049,0.9995
02:26:28.809,0.0151,-0.0020,0.9980
02:26:28.822,0.0112,0.0093,0.9985
02:26:28.835,-0.0127,-0.0044,0.9702
02:26:28.850,0.0059,-0.0317,1.0195
02:26:28.863,-0.0093,0.0278,0.9966
02:26:28.879,-0.0034,0.0195,0.9961
02:26:28.891,-0.0059,-0.0034,0.9351
02:26:28.903,0.0254,0.0083,1.0107
02:26:28.916,0.0093,0.0132,1.0005
02:26:28.929,0.0083,-0.0054,0.9746
02:26:28.946,-0.0063,-0.0190,0.9995
02:26:28.958,0.0132,0.0098,1.0156
02:26:28.970,-0.0332,0.0186,0.9482
02:26:28.983,0.0054,0.0117,1.0161
02:26:28.995,0.0039,-0.0107,0.9766
02:26:29.008,0.0405,-0.0078,1.0034
02:26:29.023,0.0039,-0.0078,1.0200
02:26:29.037,-0.0049,-0.0103,1.0063
02:26:29.049,0.0088,-0.0005,0.9722
02:26:29.064,-0.0044,0.0215,1.0049
02:26:29.076,0.0146,-0.0005,0.9961
02:26:29.091,0.0073,-0.0127,0.9907
02:26:29.104,0.0132,0.0015,1.0005
02:26:29.117,0.0176,0.0059,1.0054
02:26:29.130,0.0054,0.0015,0.9995
02:26:29.145,0.0107,0.0073,1.0132
02:26:29.162,0.0098,0.0078,1.0054
02:26:29.178,-0.0093,0.0142,1.0000
02:26:29.189,0.0093,-0.0127,1.0010
02:26:29.201,0.0146,0.0034,1.0146
02:26:29.212,0.0186,-0.0024,1.0039
02:26:29.223,0.0024,0.0005,0.9951
02:26:29.234,0.0044,0.0039,1.0005
02:26:29.245,0.0146,0.0034,1.0020
02:26:29.260,0.0088,-0.0015,0.9995
02:26:29.271,0.0088,0.0010,1.0005
02:26:29.282,0.0122,0.0020,0.9985
02:26:29.294,0.0161,0.0020,1.0010
02:26:29.306,0.0063,0.0034,0.9927
02:26:29.319,0.0098,0.0103,1.0054
02:26:29.337,0.0103,0.0010,0.9951
02:26:29.348,0.0073,-0.0020,1.0024
02:26:29.361,0.0098,0.0000,1.0010
02:26:29.373,0.0142,0.0044,1.0054
02:26:29.386,0.0073,-0.0020,1.0029
02:26:29.400,0.0098,-0.0005,0.9941
02:26:29.411,0.0073,-0.0039,1.0000
02:26:29.423,0.0132,0.0010,0.9980
02:26:29.435,0.0049,0.0020,1.0015
02:26:29.446,0.0103,0.0034,1.0112
02:26:29.458,0.0078,0.0049,1.0020
02:26:29.470,0.0098,0.0024,1.0010
02:26:29.481,0.0078,0.0044,0.9961
02:26:29.493,0.0098,0.0020,1.0068
02:26:29.506,0.0107,0.0015,0.9956
02:26:29.517,0.0073,-0.0015,0.9971
02:26:29.528,0.0107,0.0029,1.0044
02:26:29.544,0.0137,0.0010,0.9995
02:26:29.555,0.0107,0.0000,0.9990
02:26:29.566,0.0049,0.0020,0.9961
02:26:29.578,0.0078,-0.0020,0.9995
02:26:29.589,0.0088,0.0000,0.9971
02:26:29.604,0.0107,0.0063,1.0005
02:26:29.617,0.0093,-0.0015,1.0029
02:26:29.628,0.0098,-0.0010,1.0005
02:26:29.639,0.0073,-0.0020,1.0020
02:26:29.652,0.0093,0.0015,0.9961
02:26:29.663,0.0093,-0.0005,1.0054
02:26:29.675,0.0098,0.0015,0.9990
02:26:29.688,0.0068,0.0010,0.9961
02:26:29.704,0.0088,0.0010,1.0005
02:26:29.717,0.0093,0.0015,0.9966
02:26:29.730,0.0117,0.0000,1.0015
02:26:29.745,0.0088,0.0020,1.0010
02:26:29.756,0.0161,0.0044,1.0015
02:26:29.768,0.0103,-0.0039,1.0029
02:26:29.779,0.0098,0.0005,1.0005
02:26:29.790,0.0059,-0.0044,1.0029
02:26:29.801,0.0059,-0.0024,0.9995
02:26:29.813,0.0093,0.0020,1.0005
02:26:29.824,0.0078,0.0034,1.0029
02:26:29.837,0.0142,0.0024,0.9951
02:26:29.850,0.0146,0.0010,1.0039
02:26:29.866,0.0137,0.0015,1.0063
02:26:29.878,0.0083,-0.0005,0.9985
02:26:29.892,0.0059,-0.0015,0.9995
02:26:29.906,0.0015,-0.0068,1.0049
02:26:29.925,0.0088,0.0005,0.9980
02:26:29.937,0.0103,0.0049,1.0029
02:26:29.950,0.0142,0.0054,1.0049
02:26:29.962,0.0161,0.0010,1.0005
02:26:29.979,0.0024,0.0396,0.9966
02:26:29.992,0.0410,-0.0171,0.9976
02:26:30.004,0.0503,-0.0005,0.9873
02:26:30.016,0.0269,0.0098,1.0000
02:26:30.029,0.0322,-0.0244,1.0264
02:26:30.046,0.0283,-0.0532,0.9927
02:26:30.059,-0.0054,-0.0479,1.0190
02:26:30.072,-0.0093,0.0234,1.0020
02:26:30.083,-0.0386,0.0898,0.9678
02:26:30.096,-0.0396,0.0308,1.0054
02:26:30.113,-0.0181,0.0083,0.9668
02:26:30.125,-0.0039,-0.0078,0.9951
02:26:30.138,0.0073,-0.0083,1.0039
02:26:30.149,-0.0044,-0.0146,0.9844
02:26:30.161,-0.0127,0.0029,0.9995
02:26:30.173,0.0288,-0.0078,1.0205
02:26:30.184,0.0522,0.0132,1.0273
02:26:30.201,0.0073,-0.0132,0.9888
02:26:30.212,-0.0039,0.0005,0.9961
02:26:30.224,0.0020,0.0054,0.9956
02:26:30.235,0.0088,0.0049,0.9917
02:26:30.246,0.0020,0.0093,1.0112
02:26:30.258,-0.0083,0.0078,0.9932
02:26:30.270,-0.0098,0.0015,0.9995
02:26:30.282,0.0039,-0.0073,1.0054
02:26:30.293,0.0171,-0.0044,1.0146
02:26:30.307,0.0088,-0.0020,0.9985
02:26:30.322,0.0015,0.0088,0.9941
02:26:30.333,0.0078,0.0029,1.0205
02:26:30.345,0.0283,0.0142,0.9805
02:26:30.360,0.0093,-0.0020,1.0278
02:26:30.371,0.0151,-0.0142,1.0244
02:26:30.387,-0.0127,0.0005,1.0117
02:26:30.398,0.0068,0.0083,1.0000
02:26:30.410,0.0063,0.0044,0.9927
02:26:30.424,0.0122,-0.0098,0.9961
02:26:30.441,0.0249,-0.0103,1.0015
02:26:30.452,0.0010,0.0024,1.0078
02:26:30.466,0.0278,-0.0020,0.9873
02:26:30.477,0.0254,-0.0020,1.0034
02:26:30.489,-0.0093,0.0054,0.9956
02:26:30.501,-0.0430,0.0049,0.9463
02:26:30.515,0.0405,0.0132,1.0039
02:26:30.527,0.0410,0.0024,1.0005
02:26:30.538,0.0420,0.0117,1.0122
02:26:30.549,-0.0005,-0.0112,1.0063
02:26:30.560,0.0112,-0.0088,0.9907
02:26:30.572,0.0151,-0.0073,0.9946
02:26:30.583,-0.0015,-0.0200,0.9609
02:26:30.594,0.0171,0.0200,1.0020
02:26:30.607,0.0078,-0.0161,0.9976
02:26:30.620,0.0010,-0.0142,0.9976
02:26:30.632,0.1030,-0.1592,1.0854
02:26:30.645,-0.0044,-0.0024,1.0073
02:26:30.657,0.0298,-0.0210,1.0454
02:26:30.668,-0.0005,-0.0039,1.0151
02:26:30.679,-0.0005,-0.0098,0.9692
02:26:30.691,0.0537,-0.0112,1.0337
02:26:30.702,0.0234,-0.0107,1.0464
02:26:30.713,0.0166,-0.0088,0.9858
02:26:30.725,0.0283,0.0107,1.0068
02:26:30.736,-0.0171,-0.0117,1.0229
02:26:30.747,0.0278,-0.0054,0.9834
02:26:30.760,0.0059,-0.0103,1.0234
02:26:30.772,-0.0039,0.0137,1.0229
02:26:30.784,0.0015,-0.0122,0.9883
02:26:30.797,-0.0034,0.0078,1.0039
02:26:30.808,0.0376,-0.0039,1.0073
02:26:30.821,-0.0063,-0.0024,0.9917
02:26:30.837,0.0210,-0.0034,1.0117
02:26:30.850,-0.0186,-0.0049,0.9883
02:26:30.861,0.0234,0.0156,1.0239
02:26:30.872,0.0142,0.0215,0.9868
02:26:30.884,0.0054,0.0137,0.9985
02:26:30.895,-0.0010,-0.0117,0.9917
02:26:30.908,0.0171,-0.0015,1.0063
02:26:30.920,0.0034,-0.0020,0.9897
02:26:30.933,0.0171,0.0142,0.9780
02:26:30.950,0.0093,0.0029,0.9849
02:26:30.962,0.0029,-0.0088,1.0005
02:26:30.973,-0.0093,0.0103,0.9712
02:26:30.986,0.0464,0.0083,1.0142
02:26:31.000,0.0322,-0.0112,1.0273
02:26:31.015,0.0034,-0.0103,1.0107
02:26:31.026,0.0068,0.0059,0.9888
02:26:31.038,0.0161,0.0137,0.9971
02:26:31.049,-0.0083,0.0171,0.9937
02:26:31.063,-0.0078,-0.0073,0.9810
02:26:31.078,-0.0024,-0.0034,1.0078
02:26:31.089,0.0078,0.0024,1.0005
02:26:31.101,0.0088,0.0044,1.0005
02:26:31.113,0.0195,0.0010,1.0122
02:26:31.127,0.0107,0.0039,1.0010
02:26:31.138,0.0103,-0.0020,0.9980
02:26:31.151,0.0000,-0.0024,1.0034
02:26:31.162,0.0044,0.0000,0.9927
02:26:31.174,0.0068,-0.0024,0.9927
02:26:31.185,-0.0107,0.0020,1.0073
02:26:31.198,0.0054,-0.0010,1.0146
02:26:31.214,-0.0020,-0.0005,1.0088
02:26:31.225,0.0200,-0.0010,0.9932
02:26:31.238,0.0190,-0.0049,1.0005
02:26:31.249,0.0093,0.0024,1.0010
02:26:31.261,0.0029,-0.0063,1.0063
02:26:31.272,0.0049,-0.0059,1.0029
02:26:31.286,0.0195,0.0098,0.9883
02:26:31.297,-0.0020,0.0005,1.0098
02:26:31.308,0.0225,-0.0010,0.9922
02:26:31.320,0.0161,0.0034,1.0015
02:26:31.334,0.0166,0.0010,1.0034
02:26:31.345,0.0151,0.0000,1.0005
02:26:31.357,0.0107,-0.0015,1.0010
02:26:31.369,0.0059,-0.0024,0.9932
02:26:31.382,0.0024,0.0000,0.9980
02:26:31.398,-0.0063,-0.0054,1.0034
02:26:31.410,0.0039,0.0000,1.0190
02:26:31.422,-0.0015,-0.0059,1.0015
02:26:31.434,-0.0112,-0.0044,1.0156
02:26:31.445,0.0371,0.0083,1.0039
02:26:31.457,0.0181,0.0029,0.9932
02:26:31.468,0.0083,-0.0073,1.0098
02:26:31.479,0.0073,-0.0078,1.0020
02:26:31.492,0.0088,-0.0063,0.9932
02:26:31.508,0.0142,0.0073,0.9873
02:26:31.519,0.0044,0.0107,0.9917
02:26:31.532,0.0029,0.0020,0.9893
02:26:31.543,0.0200,-0.0259,1.0146
02:26:31.554,0.0146,-0.0078,0.9927
02:26:31.566,0.0225,0.0010,1.0000
02:26:31.577,0.0083,-0.0024,1.0063
02:26:31.592,0.0288,-0.0020,0.9795
02:26:31.603,-0.0117,-0.0020,1.0244
02:26:31.616,0.0049,-0.0024,1.0381
02:26:31.631,0.0342,-0.0034,0.9800
02:26:31.643,0.0068,-0.0059,1.0288
02:26:31.656,0.0176,-0.0122,1.0010
02:26:31.669,0.0151,0.0063,1.0049
02:26:31.681,-0.0005,-0.0103,0.9844
02:26:31.695,0.0249,0.0103,1.0010
02:26:31.706,0.0098,-0.0015,0.9927
02:26:31.718,-0.0098,-0.0044,1.0073
02:26:31.733,0.0059,-0.0078,1.0146
02:26:31.744,0.0166,-0.0029,1.0098
02:26:31.757,-0.0034,0.0068,1.0083
02:26:31.770,0.0161,-0.0010,0.9927
02:26:31.782,-0.0137,-0.0044,1.0088
02:26:31.793,0.0010,0.0146,0.9766
02:26:31.805,-0.0127,0.0073,0.9229
02:26:31.818,0.0225,0.0044,1.0308
02:26:31.830,0.0059,-0.0112,1.0024
02:26:31.841,0.0142,-0.0039,1.0015
02:26:31.853,0.0083,0.0010,1.0054
02:26:31.865,0.0229,-0.0034,0.9995
02:26:31.876,0.0054,-0.0063,1.0044
02:26:31.888,-0.0068,0.0029,0.9976
02:26:31.902,0.0073,-0.0083,0.9966
02:26:31.913,0.0127,-0.0005,1.0000
02:26:31.926,0.0103,0.0010,1.0044
02:26:31.937,0.0049,0.0000,0.9990
02:26:31.953,0.0117,0.0010,0.9951
02:26:31.964,0.0127,-0.0010,0.9990
02:26:31.976,0.0112,0.0015,1.0005
02:26:31.987,0.0117,0.0029,1.0024
02:26:31.998,0.0073,-0.0049,0.9927
02:26:32.009,0.0093,-0.0005,1.0063
02:26:32.020,0.0098,-0.0010,0.9927
02:26:32.032,0.0078,-0.0029,1.0005
02:26:32.045,-0.0054,0.0044,1.0059
02:26:32.059,0.0176,0.0015,0.9980
02:26:32.072,-0.0039,-0.0024,1.0059
02:26:32.084,0.0044,-0.0083,1.0015
02:26:32.098,-0.0039,0.0005,1.0005
02:26:32.110,0.0200,-0.0020,0.9976
02:26:32.126,0.0020,0.0029,0.9966
02:26:32.139,0.0190,0.0054,0.9985
02:26:32.150,-0.0083,0.0088,0.9712
02:26:32.161,0.0054,0.0063,1.0264
02:26:32.173,0.0171,-0.0142,1.0137
02:26:32.184,0.0439,-0.0117,1.0029
02:26:32.196,0.0044,0.0029,0.9966
02:26:32.208,-0.0010,-0.0063,0.9893
02:26:32.221,0.0024,-0.0034,0.9966
02:26:32.233,0.0034,-0.0039,1.0005
02:26:32.244,0.0054,-0.0010,0.9863
02:26:32.257,-0.0771,-0.0317,0.9575
02:26:32.271,0.0142,-0.0190,1.0054
02:26:32.282,0.0479,-0.0034,1.0635
02:26:32.294,-0.0073,0.0029,0.9980
02:26:32.305,0.0039,0.0103,0.9873
02:26:32.316,0.0103,-0.0034,0.9727
02:26:32.328,0.0225,0.0059,1.0156
02:26:32.345,-0.0220,0.0044,0.9922
02:26:32.357,-0.0220,-0.0229,0.9966
02:26:32.369,-0.0127,-0.0127,1.0049
02:26:32.382,0.0122,0.0225,1.0146
02:26:32.398,0.0151,0.0078,0.9800
02:26:32.409,0.0049,-0.0063,1.0112
02:26:32.423,0.0200,0.0312,1.0107
02:26:32.435,0.0137,0.0049,0.9985
02:26:32.455,0.0005,-0.0205,0.9937
02:26:32.466,0.0088,0.0049,1.0122
02:26:32.477,0.0205,-0.0024,1.0088
02:26:32.488,0.0068,-0.0210,1.0171
02:26:32.500,0.0098,-0.0264,1.0430
02:26:32.512,0.0332,-0.0034,0.9971
02:26:32.526,0.0195,0.0029,1.0156
02:26:32.537,-0.0073,-0.0137,1.0088
02:26:32.550,0.0020,0.0034,0.9995
02:26:32.563,0.0254,0.0386,0.9980
02:26:32.575,0.0122,0.0366,0.9907
02:26:32.588,-0.0146,-0.0142,0.9409
02:26:32.600,0.0063,0.0078,0.9951
02:26:32.612,0.0303,0.0044,0.9849
02:26:32.629,0.0425,-0.0239,1.0068
02:26:32.640,0.0479,-0.0176,0.9966
02:26:32.654,0.0366,-0.0166,1.0273
02:26:32.668,0.0288,-0.0039,1.0146
02:26:32.680,0.0024,0.0024,1.0142
02:26:32.693,-0.0171,-0.0010,1.0049
02:26:32.706,-0.0479,0.0420,1.0098
02:26:32.718,-0.0283,0.0068,1.0034
02:26:32.732,-0.0278,0.0356,1.0215
02:26:32.746,-0.0410,-0.0171,1.0244
02:26:32.762,-0.0708,-0.1230,1.1099
02:26:32.774,-0.1167,-0.1606,1.1265
02:26:32.785,-0.1182,-0.1924,1.1504
02:26:32.796,-0.1348,-0.2451,1.1299
02:26:32.807,-0.1562,-0.2646,1.1494
02:26:32.819,-0.1392,-0.2798,1.1611
02:26:32.830,-0.1416,-0.2837,1.1616
02:26:32.842,-0.1396,-0.2568,1.1899
02:26:32.854,-0.1294,-0.2188,1.1558
02:26:32.865,-0.1499,-0.2012,1.1641
02:26:32.878,-0.1226,-0.1660,1.1270
02:26:32.890,-0.1265,-0.1616,1.1255
02:26:32.901,-0.1421,-0.1494,1.1382
02:26:32.913,-0.1436,-0.1318,1.1196
02:26:32.924,-0.1348,-0.1060,1.1089
02:26:32.936,-0.1406,-0.0972,1.1084
02:26:32.948,-0.1221,-0.0923,1.1177
02:26:32.959,-0.1182,-0.0762,1.1138
02:26:32.972,-0.1104,-0.0615,1.1025
02:26:32.984,-0.0986,-0.0562,1.0952
02:26:32.997,-0.0991,-0.0620,1.0938
02:26:33.009,-0.0820,-0.0630,1.0884
02:26:33.022,-0.0718,-0.0518,1.0830
02:26:33.034,-0.0576,-0.0244,1.0894
02:26:33.045,-0.0635,-0.0112,1.0908
02:26:33.056,-0.0625,-0.0249,1.0977
02:26:33.067,-0.0303,-0.0122,1.0938
02:26:33.079,-0.0518,-0.0410,1.0967
02:26:33.090,-0.0430,-0.0391,1.1006
02:26:33.102,-0.0283,-0.0225,1.0796
02:26:33.113,-0.0283,-0.0205,1.0708
02:26:33.125,-0.0391,-0.0391,1.0908
02:26:33.137,-0.0283,-0.0400,1.0815
02:26:33.149,-0.0303,-0.0142,1.0806
02:26:33.164,-0.0527,0.0151,1.0918
02:26:33.176,-0.0649,0.0156,1.0859
02:26:33.188,-0.0566,-0.0044,1.0767
02:26:33.199,-0.0742,-0.0278,1.1030
02:26:33.210,-0.0679,-0.0195,1.0835
02:26:33.224,-0.0898,-0.0049,1.0845
02:26:33.236,-0.1021,0.0073,1.0762
02:26:33.248,-0.1157,-0.0093,1.0845
02:26:33.260,-0.1250,-0.0308,1.0923
02:26:33.271,-0.1123,-0.0532,1.0845
02:26:33.282,-0.1074,-0.0605,1.0703
02:26:33.296,-0.1338,-0.0532,1.0835
02:26:33.307,-0.1113,-0.0430,1.0635
02:26:33.318,-0.1172,-0.0347,1.0605
02:26:33.331,-0.1396,-0.0498,1.0723
02:26:33.342,-0.1245,-0.0513,1.0200
02:26:33.354,-0.1348,-0.0688,1.0513
02:26:33.365,-0.1025,-0.0669,1.0425
02:26:33.378,-0.1128,-0.0806,1.0718
02:26:33.389,-0.0757,-0.0576,1.0586
02:26:33.400,-0.1885,-0.0239,0.9385
02:26:33.412,-0.0605,-0.0146,1.0005
02:26:33.425,-0.0942,0.0093,0.9766
02:26:33.437,-0.0854,-0.0195,1.0391
02:26:33.450,-0.0781,-0.0078,0.9902
02:26:33.463,-0.0591,-0.0444,0.9971
02:26:33.475,-0.0962,-0.1079,0.9204
02:26:33.488,-0.0972,-0.0430,0.9663
02:26:33.501,-0.0962,-0.0557,0.9575
02:26:33.516,-0.0996,-0.0459,0.9326
02:26:33.528,-0.0835,-0.0586,1.0146
02:26:33.540,-0.0981,-0.0381,0.9424
02:26:33.552,-0.1182,-0.0435,0.8936
02:26:33.564,-0.0767,-0.0327,0.9492
02:26:33.578,-0.0781,-0.0425,0.9106
02:26:33.590,-0.0830,-0.0454,0.9390
02:26:33.602,-0.0562,-0.0269,0.9380
02:26:33.613,-0.0674,0.0010,0.9321
02:26:33.625,-0.0776,0.0352,0.9263
02:26:33.636,-0.0605,0.0396,0.9541
02:26:33.649,-0.0625,0.0537,0.9209
02:26:33.661,-0.0776,0.0117,0.9448
02:26:33.672,-0.0488,0.0513,0.9224
02:26:33.683,-0.0718,0.0454,0.9341
02:26:33.695,-0.0254,0.0693,0.9185
02:26:33.706,-0.0532,0.0630,0.9150
02:26:33.719,-0.0503,0.0850,0.9390
02:26:33.730,-0.0142,0.0889,0.9292
02:26:33.742,-0.0195,0.1016,0.9409
02:26:33.753,-0.0054,0.1128,0.9482
02:26:33.764,0.0298,0.1284,0.9385
02:26:33.776,0.0098,0.1201,0.9414
02:26:33.788,0.0547,0.1172,0.9590
02:26:33.804,0.0562,0.1187,0.9829
02:26:33.816,0.0562,0.1455,0.9854
02:26:33.828,0.0640,0.1587,0.9863
02:26:33.839,0.0815,0.1567,0.9731
02:26:33.851,0.1001,0.1533,1.0132
02:26:33.862,0.1001,0.1733,0.9780
02:26:33.873,0.1338,0.1689,1.0078
02:26:33.884,0.1250,0.1831,0.9775
02:26:33.897,0.1348,0.2173,0.9800
02:26:33.909,0.1421,0.1753,0.9912
02:26:33.921,0.1772,0.1548,0.9111
02:26:33.934,0.2466,0.2021,1.0269
02:26:33.945,0.2188,0.2007,1.0264
02:26:33.957,0.2358,0.2202,1.0430
02:26:33.969,0.2710,0.2041,1.0610
02:26:33.980,0.2969,0.2485,1.0166
02:26:33.993,0.3091,0.2290,1.0034
02:26:34.006,0.3354,0.2334,1.0078
02:26:34.019,0.3711,0.2236,0.9980
02:26:34.031,0.4111,0.2129,1.0015
02:26:34.043,0.4482,0.2598,0.9692
02:26:34.058,0.4624,0.3145,0.9414
02:26:34.071,0.5117,0.3530,0.9199
02:26:34.085,0.5586,0.3638,0.8975
02:26:34.098,0.5708,0.3770,0.8062
02:26:34.110,0.6763,0.3828,0.8457
02:26:34.126,0.6841,0.4434,0.7754
02:26:34.138,0.6772,0.4668,0.7881
02:26:34.150,0.6938,0.4712,0.7627
02:26:34.161,0.7339,0.4912,0.7031
02:26:34.172,0.7476,0.4561,0.6572
02:26:34.183,0.7290,0.4551,0.5762
02:26:34.198,0.7490,0.4795,0.4878
02:26:34.217,0.6987,0.4946,0.3652
02:26:34.229,0.7168,0.5093,0.2939
02:26:34.241,0.6807,0.4883,0.2363
02:26:34.252,0.6758,0.4922,0.1616
02:26:34.263,0.6772,0.4888,0.1328
02:26:34.276,0.6294,0.4932,0.0840
02:26:34.290,0.6274,0.4868,0.0454
02:26:34.302,0.6206,0.4946,0.0352
02:26:34.313,0.5957,0.5039,-0.0239
02:26:34.325,0.5981,0.4941,-0.0269
02:26:34.340,0.5879,0.5063,-0.0503
02:26:34.351,0.6040,0.5469,-0.0884
02:26:34.362,0.6177,0.5635,-0.0918
02:26:34.373,0.6177,0.5723,-0.0815
02:26:34.384,0.6001,0.5889,-0.1187
02:26:34.395,0.6118,0.5889,-0.1060
02:26:34.406,0.6333,0.5752,-0.1191
02:26:34.419,0.6387,0.5918,-0.1030
02:26:34.433,0.6377,0.5532,-0.1367
02:26:34.444,0.6260,0.5640,-0.1445
02:26:34.455,0.6465,0.5742,-0.1343
02:26:34.476,0.6538,0.5986,-0.1387
02:26:34.487,0.6641,0.5674,-0.1787
02:26:34.499,0.6880,0.5771,-0.1519
02:26:34.510,0.6538,0.5923,-0.2061
02:26:34.523,0.6670,0.5645,-0.1919
02:26:34.535,0.6675,0.5806,-0.2217
02:26:34.550,0.6401,0.5879,-0.2017
02:26:34.561,0.6836,0.6133,-0.2124
02:26:34.574,0.6436,0.6162,-0.2241
02:26:34.585,0.6558,0.6167,-0.2036
02:26:34.598,0.6362,0.5957,-0.2505
02:26:34.609,0.6597,0.5869,-0.2461
02:26:34.620,0.6812,0.5801,-0.2554
02:26:34.632,0.6548,0.5874,-0.2607
02:26:34.647,0.6899,0.5938,-0.2500
02:26:34.660,0.7295,0.5762,-0.2622
02:26:34.675,0.7241,0.5815,-0.2505
02:26:34.690,0.7227,0.5688,-0.2349
02:26:34.702,0.7300,0.5640,-0.2510
02:26:34.718,0.7490,0.5771,-0.2412
02:26:34.729,0.7646,0.5728,-0.2236
02:26:34.740,0.7910,0.5674,-0.2422
02:26:34.754,0.7627,0.5498,-0.2285
02:26:34.767,0.7983,0.5410,-0.2070
02:26:34.781,0.8032,0.5981,-0.1938
02:26:34.793,0.8120,0.5996,-0.1899
02:26:34.805,0.7969,0.5513,-0.1797
02:26:34.817,0.8228,0.5464,-0.1675
02:26:34.832,0.8223,0.5298,-0.1724
02:26:34.846,0.8149,0.5483,-0.1626
02:26:34.861,0.8193,0.5942,-0.1514
02:26:34.873,0.8257,0.6060,-0.1353
02:26:34.884,0.8149,0.5532,-0.1548
02:26:34.896,0.8271,0.5723,-0.1216
02:26:34.908,0.8110,0.5552,-0.1064
02:26:34.922,0.7954,0.5439,-0.1050
02:26:34.933,0.8101,0.5400,-0.0913
02:26:34.946,0.8008,0.5239,-0.0869
02:26:34.957,0.7847,0.5244,-0.1025
02:26:34.969,0.7881,0.4844,-0.0811
02:26:34.981,0.7954,0.4639,-0.0815
02:26:34.993,0.8364,0.4858,-0.0474
02:26:35.006,0.7969,0.4790,-0.0532
02:26:35.019,0.7754,0.5054,-0.0439
02:26:35.032,0.8130,0.4790,-0.0205
02:26:35.045,0.8047,0.4839,-0.0459
02:26:35.056,0.8184,0.4912,-0.0415
02:26:35.068,0.8135,0.4893,-0.0425
02:26:35.079,0.8354,0.4863,-0.0464
02:26:35.091,0.8467,0.4443,-0.0425
02:26:35.102,0.8618,0.4404,-0.0259
02:26:35.115,0.8838,0.4238,-0.0479
02:26:35.127,0.9009,0.4839,-0.0669
02:26:35.139,0.8989,0.4609,-0.0386
02:26:35.151,0.9102,0.4639,-0.0576
02:26:35.162,0.9375,0.4707,-0.0356
02:26:35.174,0.9683,0.4761,-0.0283
02:26:35.186,0.9800,0.4570,-0.0210
02:26:35.198,0.9771,0.4761,-0.0630
02:26:35.209,0.9858,0.4912,-0.0586
02:26:35.220,0.9863,0.5186,-0.0664
02:26:35.231,1.0366,0.5039,-0.0352
02:26:35.245,0.9976,0.4692,-0.0688
02:26:35.257,1.0283,0.4795,-0.0776
02:26:35.276,1.0112,0.4570,-0.0474
02:26:35.289,1.0161,0.4497,-0.0776
02:26:35.302,1.0107,0.4443,-0.0415
02:26:35.314,1.0332,0.4683,-0.0146
02:26:35.329,0.9980,0.4248,-0.0112
02:26:35.340,0.9946,0.4219,-0.0347
02:26:35.351,0.9980,0.4346,-0.0366
02:26:35.365,0.9795,0.4014,-0.0444
02:26:35.376,0.9702,0.4292,-0.1025
02:26:35.387,0.9683,0.4600,-0.0527
02:26:35.399,0.9883,0.4800,-0.0576
02:26:35.411,0.9292,0.4639,-0.0815
02:26:35.424,0.9287,0.4561,-0.1177
02:26:35.437,0.9399,0.4458,-0.0913
02:26:35.453,0.9316,0.4707,-0.1177
02:26:35.464,0.9380,0.4619,-0.1104
02:26:35.476,0.9326,0.4800,-0.1143
02:26:35.489,0.9282,0.4746,-0.1230
02:26:35.500,0.9512,0.4746,-0.1440
02:26:35.512,0.9297,0.4438,-0.1118
02:26:35.524,0.9531,0.4629,-0.1221
02:26:35.535,0.9580,0.4570,-0.1245
02:26:35.547,0.9170,0.4360,-0.0981
02:26:35.560,0.9141,0.4302,-0.1289
02:26:35.572,0.9233,0.4272,-0.1274
02:26:35.584,0.9214,0.4497,-0.1289
02:26:35.596,0.9404,0.4209,-0.1074
02:26:35.607,0.8999,0.4380,-0.1284
02:26:35.619,0.8916,0.4121,-0.1445
02:26:35.630,0.9365,0.4146,-0.1250
02:26:35.643,0.9199,0.4399,-0.1538
02:26:35.656,0.8984,0.4326,-0.1084
02:26:35.670,0.8955,0.4463,-0.1270
02:26:35.682,0.8843,0.4639,-0.1353
02:26:35.700,0.9053,0.4419,-0.1523
02:26:35.715,0.8960,0.4302,-0.1460
02:26:35.730,0.8794,0.4385,-0.1533
02:26:35.742,0.8872,0.4448,-0.1431
02:26:35.755,0.9092,0.4644,-0.1143
02:26:35.768,0.9043,0.4761,-0.1577
02:26:35.781,0.8984,0.4546,-0.1260
02:26:35.792,0.9346,0.4707,-0.1318
02:26:35.804,0.8750,0.4531,-0.1904
02:26:35.816,0.9155,0.4468,-0.1626
02:26:35.827,0.8735,0.4453,-0.1772
02:26:35.838,0.8853,0.4268,-0.1597
02:26:35.850,0.9180,0.4453,-0.1738
02:26:35.866,0.8853,0.4453,-0.1689
02:26:35.879,0.8975,0.4375,-0.1772
02:26:35.890,0.9106,0.4565,-0.1753
02:26:35.904,0.9043,0.4229,-0.1763
02:26:35.916,0.9106,0.4644,-0.1855
02:26:35.927,0.9116,0.4458,-0.1787
02:26:35.938,0.9072,0.4248,-0.1841
02:26:35.950,0.9058,0.4409,-0.1885
02:26:35.962,0.9038,0.4541,-0.1758
02:26:35.973,0.9033,0.4531,-0.1675
02:26:35.986,0.9092,0.4795,-0.1753
02:26:35.998,0.8940,0.4854,-0.1699
02:26:36.011,0.8794,0.4805,-0.1655
02:26:36.025,0.8877,0.4795,-0.1631
02:26:36.036,0.8862,0.4595,-0.1743
02:26:36.048,0.8853,0.4551,-0.1743
02:26:36.062,0.8833,0.4521,-0.1572
02:26:36.077,0.8838,0.4609,-0.1406
02:26:36.088,0.8779,0.4600,-0.1504
02:26:36.100,0.8672,0.4849,-0.1636
02:26:36.113,0.8667,0.4521,-0.1587
02:26:36.125,0.8691,0.4644,-0.1509
02:26:36.136,0.8647,0.4580,-0.1602
02:26:36.149,0.8706,0.4609,-0.1421
02:26:36.161,0.8721,0.4829,-0.1621
02:26:36.172,0.8525,0.4683,-0.1851
02:26:36.188,0.8813,0.4702,-0.1323
02:26:36.201,0.8857,0.5034,-0.1514
02:26:36.218,0.8667,0.4736,-0.1694
02:26:36.233,0.8623,0.4727,-0.1709
02:26:36.245,0.8750,0.4575,-0.1587
02:26:36.257,0.8853,0.4551,-0.1572
02:26:36.269,0.8794,0.4736,-0.1650
02:26:36.287,0.8940,0.4927,-0.1597
02:26:36.300,0.8857,0.4893,-0.1626
02:26:36.312,0.8696,0.4692,-0.1772
02:26:36.324,0.8716,0.4634,-0.1860
02:26:36.335,0.8750,0.4619,-0.1782
02:26:36.350,0.8862,0.4805,-0.1650
02:26:36.361,0.8848,0.4912,-0.1792
02:26:36.373,0.8706,0.4780,-0.1846
02:26:36.384,0.8394,0.4648,-0.1904
02:26:36.395,0.8857,0.4805,-0.1558
02:26:36.407,0.8623,0.4556,-0.1890
02:26:36.420,0.8794,0.4727,-0.1592
02:26:36.433,0.8750,0.4907,-0.1807
02:26:36.447,0.8779,0.4561,-0.1631
02:26:36.460,0.8652,0.4526,-0.1875
02:26:36.473,0.8765,0.4727,-0.1885
02:26:36.486,0.8950,0.4951,-0.1816
02:26:36.501,0.8794,0.4780,-0.1738
02:26:36.513,0.8994,0.4761,-0.1562
02:26:36.524,0.8862,0.4863,-0.1743
02:26:36.535,0.8848,0.4863,-0.1768
02:26:36.546,0.8789,0.4722,-0.1704
02:26:36.562,0.8818,0.5054,-0.1748
02:26:36.573,0.8940,0.4697,-0.1655
02:26:36.586,0.8862,0.4746,-0.1714
02:26:36.598,0.8887,0.4692,-0.1587
02:26:36.609,0.8901,0.4546,-0.1704
02:26:36.620,0.8706,0.4639,-0.1821
02:26:36.634,0.8735,0.4648,-0.1738
02:26:36.645,0.8447,0.4600,-0.1948
02:26:36.658,0.8687,0.4673,-0.1855
02:26:36.671,0.8936,0.4678,-0.1646
02:26:36.685,0.8843,0.4614,-0.1704
02:26:36.696,0.8701,0.4609,-0.1870
02:26:36.711,0.8726,0.4458,-0.1904
02:26:36.723,0.8848,0.4595,-0.1807
02:26:36.734,0.8823,0.4326,-0.1729
02:26:36.745,0.8936,0.4644,-0.1592
02:26:36.756,0.8965,0.4780,-0.1611
02:26:36.767,0.8760,0.4536,-0.1748
02:26:36.778,0.8794,0.4380,-0.1694
02:26:36.790,0.8960,0.4385,-0.1636
02:26:36.803,0.8901,0.4277,-0.1577
02:26:36.815,0.8887,0.4502,-0.1885
02:26:36.827,0.8677,0.4624,-0.1938
02:26:36.844,0.8848,0.4536,-0.1680
02:26:36.855,0.8906,0.4653,-0.1572
02:26:36.866,0.9092,0.4634,-0.1558
02:26:36.878,0.8848,0.4448,-0.1753
02:26:36.890,0.8945,0.4707,-0.1523
02:26:36.903,0.8765,0.4136,-0.1689
02:26:36.914,0.8970,0.4307,-0.1489
02:26:36.933,0.9043,0.4854,-0.1836
02:26:36.945,0.8994,0.4321,-0.1577
02:26:36.958,0.9077,0.4409,-0.1553
02:26:36.971,0.9028,0.4512,-0.1724
02:26:36.982,0.9043,0.4546,-0.1323
02:26:36.993,0.9019,0.4712,-0.1548
02:26:37.006,0.8970,0.4468,-0.1450
02:26:37.017,0.9043,0.4644,-0.1689
02:26:37.029,0.9082,0.4165,-0.1519
02:26:37.040,0.9170,0.4341,-0.1338
02:26:37.052,0.9194,0.4541,-0.1445
02:26:37.064,0.9053,0.4683,-0.1523
02:26:37.075,0.9199,0.4336,-0.1382
02:26:37.086,0.8857,0.4302,-0.1582
02:26:37.099,0.9102,0.4287,-0.1338
02:26:37.111,0.8804,0.4116,-0.1592
02:26:37.122,0.8892,0.4351,-0.1548
02:26:37.135,0.8960,0.4155,-0.1636
02:26:37.146,0.9014,0.4102,-0.1416
02:26:37.160,0.9087,0.4082,-0.1543
02:26:37.171,0.9092,0.4053,-0.1460
02:26:37.183,0.9199,0.3999,-0.1299
02:26:37.196,0.9209,0.4116,-0.1221
02:26:37.209,0.9106,0.4517,-0.1553
02:26:37.221,0.9194,0.4458,-0.1460
02:26:37.233,0.9307,0.4502,-0.1353
02:26:37.249,0.9194,0.4302,-0.1343
02:26:37.262,0.9214,0.4312,-0.1235
02:26:37.275,0.9209,0.4399,-0.1333
02:26:37.289,0.9170,0.4141,-0.1289
02:26:37.302,0.9160,0.4526,-0.1455
02:26:37.316,0.9097,0.4365,-0.1338
02:26:37.329,0.9028,0.4556,-0.1333
02:26:37.341,0.9209,0.4355,-0.1182
02:26:37.353,0.8916,0.4355,-0.1748
02:26:37.364,0.9092,0.4604,-0.1421
02:26:37.378,0.8999,0.4155,-0.1387
02:26:37.389,0.9028,0.4180,-0.1665
02:26:37.403,0.9038,0.4336,-0.1455
02:26:37.415,0.8848,0.3940,-0.1475
02:26:37.426,0.9004,0.4302,-0.1206
02:26:37.442,0.8926,0.4048,-0.1465
02:26:37.453,0.8994,0.4053,-0.1416
02:26:37.464,0.8911,0.3691,-0.1362
02:26:37.475,0.8892,0.4229,-0.1440
02:26:37.489,0.8857,0.4121,-0.1577
02:26:37.500,0.8892,0.4258,-0.1655
02:26:37.514,0.8936,0.4053,-0.1572
02:26:37.526,0.8955,0.3979,-0.1616
02:26:37.539,0.9165,0.4155,-0.1431
02:26:37.550,0.8965,0.3945,-0.1509
02:26:37.561,0.9199,0.4028,-0.1553
02:26:37.575,0.9224,0.3926,-0.1460
02:26:37.588,0.9185,0.3955,-0.1514
02:26:37.600,0.9375,0.3887,-0.1274
02:26:37.613,0.9380,0.3779,-0.1245
02:26:37.624,0.9346,0.3848,-0.1538
02:26:37.638,0.9414,0.3818,-0.1499
02:26:37.649,0.9463,0.3794,-0.1465
02:26:37.661,0.9385,0.3325,-0.1499
02:26:37.672,0.9536,0.3579,-0.1411
02:26:37.683,0.9580,0.3799,-0.1411
02:26:37.694,0.9531,0.3462,-0.1133
02:26:37.709,0.9800,0.3511,-0.1304
02:26:37.720,0.9565,0.3120,-0.1343
02:26:37.732,0.9531,0.3457,-0.1538
02:26:37.748,0.9600,0.3257,-0.1299
02:26:37.760,0.9390,0.3223,-0.1392
02:26:37.772,0.9087,0.2788,-0.1812
02:26:37.785,0.9751,0.3218,-0.1265
02:26:37.797,0.9355,0.3130,-0.1470
02:26:37.809,0.9370,0.3193,-0.1558
02:26:37.821,0.9297,0.3325,-0.1313
02:26:37.832,0.9663,0.3301,-0.1089
02:26:37.845,0.9438,0.3145,-0.1323
02:26:37.856,0.9512,0.3188,-0.1094
02:26:37.870,0.9653,0.3384,-0.1353
02:26:37.881,0.9634,0.3086,-0.1011
02:26:37.893,0.9512,0.3281,-0.1040
02:26:37.906,0.9292,0.3184,-0.1431
02:26:37.918,0.9575,0.2842,-0.1226
02:26:37.929,0.9653,0.2900,-0.1147
02:26:37.945,0.9307,0.3027,-0.1606
02:26:37.957,0.9800,0.3223,-0.1206
02:26:37.970,0.9565,0.2920,-0.1338
02:26:37.982,0.9556,0.2847,-0.1069
02:26:37.996,0.9658,0.2563,-0.1240
02:26:38.008,0.9727,0.2466,-0.1108
02:26:38.022,0.9731,0.2524,-0.1094
02:26:38.034,0.9722,0.2432,-0.0986
02:26:38.051,0.9595,0.2476,-0.1401
02:26:38.064,0.9390,0.2397,-0.1406
02:26:38.075,0.9517,0.2349,-0.1206
02:26:38.086,0.9487,0.2324,-0.1025
02:26:38.097,0.9321,0.2026,-0.1060
02:26:38.109,0.9360,0.1909,-0.0947
02:26:38.120,0.9390,0.2007,-0.0664
02:26:38.133,0.9282,0.2114,-0.0562
02:26:38.145,0.8896,0.2104,-0.0840
02:26:38.158,0.9189,0.2324,-0.0366
02:26:38.170,0.9019,0.2271,-0.0278
02:26:38.185,0.8442,0.2075,-0.0498
02:26:38.204,0.8618,0.1699,-0.0488
02:26:38.216,0.8701,0.1396,-0.0605
02:26:38.232,0.8779,0.1138,-0.0356
02:26:38.245,0.8706,0.1353,-0.0366
02:26:38.258,0.8687,0.1138,-0.0269
02:26:38.269,0.8896,0.1226,-0.0054
02:26:38.280,0.8789,0.0889,-0.0454
02:26:38.292,0.8408,0.0601,-0.0620
02:26:38.305,0.8115,0.0562,-0.0986
02:26:38.318,0.8096,0.0283,-0.0757
02:26:38.329,0.8398,0.0000,-0.0298
02:26:38.341,0.8296,-0.0210,-0.0381
02:26:38.352,0.8237,-0.0640,-0.0449
02:26:38.363,0.8584,-0.0532,-0.0312
02:26:38.379,0.8564,-0.1147,-0.0283
02:26:38.394,0.8491,-0.1323,-0.0405
02:26:38.405,0.8262,-0.1323,0.0107
02:26:38.417,0.8071,-0.1382,0.0195
02:26:38.429,0.8286,-0.1924,0.0239
02:26:38.442,0.8687,-0.2305,0.0181
02:26:38.454,0.8818,-0.2520,0.0493
02:26:38.466,0.8594,-0.2324,0.0449
02:26:38.477,0.8608,-0.2241,0.0889
02:26:38.489,0.8364,-0.2002,0.1265
02:26:38.500,0.8359,-0.2080,0.1567
02:26:38.514,0.8252,-0.2754,0.1621
02:26:38.525,0.8691,-0.3271,0.1650
02:26:38.538,0.8662,-0.3647,0.1680
02:26:38.550,0.7764,-0.3706,0.1426
02:26:38.561,0.7983,-0.3555,0.2104
02:26:38.576,0.8574,-0.4004,0.0933
02:26:38.587,0.9180,-0.4751,0.1489
02:26:38.604,0.9307,-0.4448,0.0801
02:26:38.616,0.9775,-0.5483,0.0703
02:26:38.628,0.9585,-0.5522,0.0596
02:26:38.642,0.9658,-0.5347,0.0894
02:26:38.654,0.9648,-0.5342,0.1079
02:26:38.675,0.9043,-0.6426,0.1255
02:26:38.686,0.9316,-0.7065,0.1216
02:26:38.698,0.8389,-0.7002,0.0732
02:26:38.709,0.8247,-0.6909,0.0835
02:26:38.722,0.8428,-0.7139,0.1147
02:26:38.733,0.8052,-0.6787,0.1260
02:26:38.745,0.8340,-0.6392,0.1504
02:26:38.757,0.8345,-0.6226,0.1401
02:26:38.770,0.8506,-0.6250,0.1045
02:26:38.784,0.8315,-0.6362,0.0688
02:26:38.796,0.8345,-0.6548,0.0591
02:26:38.808,0.8091,-0.6455,0.0586
02:26:38.819,0.8022,-0.6729,0.0488
02:26:38.830,0.8091,-0.6587,0.0635
02:26:38.841,0.7993,-0.6777,0.0674
02:26:38.853,0.7661,-0.6924,0.0386
02:26:38.864,0.7559,-0.7002,0.0298
02:26:38.878,0.7363,-0.7114,0.0513
02:26:38.889,0.7378,-0.6929,0.0137
02:26:38.900,0.7197,-0.7036,0.0835
02:26:38.911,0.7246,-0.7144,0.0649
02:26:38.923,0.6851,-0.7222,0.0537
02:26:38.937,0.6558,-0.7407,0.0742
02:26:38.948,0.6748,-0.7729,0.1045
02:26:38.962,0.5962,-0.7910,0.0698
02:26:38.974,0.5669,-0.7900,0.1040
02:26:38.985,0.5112,-0.8008,0.0474
02:26:38.997,0.5479,-0.8018,0.1074
02:26:39.009,0.4609,-0.7905,0.0493
02:26:39.023,0.4116,-0.8643,0.0444
02:26:39.041,0.3560,-0.9307,0.0845
02:26:39.052,0.3032,-0.9902,0.0962
02:26:39.063,0.2896,-1.0396,0.0732
02:26:39.074,0.2676,-1.0640,0.0640
02:26:39.085,0.2393,-1.0825,0.0713
02:26:39.097,0.2173,-1.0469,0.0806
02:26:39.110,0.1943,-1.0532,0.0991
02:26:39.122,0.2241,-1.1025,0.0845
02:26:39.134,0.1973,-1.1514,0.0566
02:26:39.146,0.1992,-1.1401,0.0215
02:26:39.159,0.2056,-1.0942,-0.0195
02:26:39.171,0.2168,-1.0952,-0.0254
02:26:39.183,0.1890,-1.0981,-0.0117
02:26:39.194,0.1475,-1.0615,0.0054
02:26:39.206,0.1245,-1.0483,0.0454
02:26:39.217,0.1011,-1.0508,0.0796
02:26:39.230,0.0718,-1.0801,0.0649
02:26:39.244,0.0249,-1.1602,0.0298
02:26:39.258,0.0400,-1.1572,0.0259
02:26:39.270,0.0454,-1.1738,0.0044
02:26:39.283,0.0640,-1.0635,0.0156
02:26:39.299,0.0684,-1.0337,0.0532
02:26:39.311,0.0356,-1.0542,0.0762
02:26:39.324,0.0083,-1.1206,0.0835
02:26:39.336,0.0059,-1.1143,0.0786
02:26:39.348,0.0132,-1.1011,0.1138
02:26:39.359,-0.0200,-1.0996,0.1250
02:26:39.373,-0.0859,-1.0967,0.0991
02:26:39.385,-0.0986,-1.0669,0.0918
02:26:39.398,-0.0498,-1.0991,0.0630
02:26:39.411,0.0034,-1.1025,0.0293
02:26:39.424,-0.0205,-1.0562,0.0161
02:26:39.436,-0.0503,-1.0684,-0.0205
02:26:39.449,-0.0542,-1.0391,-0.0244
02:26:39.462,-0.0645,-1.0566,0.0215
02:26:39.480,-0.1294,-1.0132,0.0444
02:26:39.491,-0.1572,-0.9976,0.0522
02:26:39.503,-0.2017,-0.9800,0.0806
02:26:39.517,-0.2529,-1.0137,0.0542
02:26:39.528,-0.2358,-0.9888,0.0747
02:26:39.539,-0.2388,-0.9453,0.1050
02:26:39.550,-0.2637,-0.9707,0.0918
02:26:39.561,-0.2700,-0.9541,0.0718
02:26:39.574,-0.2725,-0.9624,0.0713
02:26:39.585,-0.2612,-1.0083,0.0840
02:26:39.597,-0.3105,-0.9985,0.0732
02:26:39.608,-0.3359,-0.9658,0.0811
02:26:39.621,-0.3843,-0.8896,0.0928
02:26:39.637,-0.4316,-0.9009,0.0605
02:26:39.652,-0.4741,-0.9028,0.0825
02:26:39.664,-0.4907,-0.9038,0.1450
02:26:39.675,-0.4941,-0.9048,0.1489
02:26:39.686,-0.4927,-0.9028,0.1938
02:26:39.702,-0.5430,-0.9082,0.1870
02:26:39.713,-0.5762,-0.8984,0.1826
02:26:39.725,-0.6470,-0.8740,0.1655
02:26:39.736,-0.6709,-0.9150,0.1509
02:26:39.747,-0.6431,-0.9487,0.1699
02:26:39.759,-0.6118,-0.9863,0.2114
02:26:39.771,-0.6304,-1.0117,0.1846
02:26:39.784,-0.6421,-1.0664,0.1938
02:26:39.795,-0.6694,-1.1255,0.2021
02:26:39.810,-0.6792,-1.2764,0.2251
02:26:39.822,-0.6250,-1.2617,0.2095
02:26:39.833,-0.5869,-1.2739,0.2285
02:26:39.845,-0.5898,-1.2993,0.2095
02:26:39.856,-0.5317,-1.2749,0.2617
02:26:39.873,-0.4873,-1.1514,0.2505
02:26:39.884,-0.4814,-1.2227,0.1392
02:26:39.896,-0.3843,-1.1567,0.2183
02:26:39.909,-0.3008,-1.0142,0.2822
02:26:39.922,-0.3037,-1.0547,0.2783
02:26:39.935,-0.2861,-1.0806,0.2852
02:26:39.950,-0.2061,-1.1396,0.3208
02:26:39.962,-0.1426,-1.0947,0.3608
02:26:39.978,-0.1099,-1.1099,0.3633
02:26:39.989,-0.1084,-1.1436,0.3477
02:26:40.001,-0.0176,-1.1763,0.4116
02:26:40.012,-0.0210,-1.1562,0.4492
02:26:40.023,0.0229,-1.0659,0.4629
02:26:40.034,0.0469,-1.0371,0.4678
02:26:40.045,0.0791,-0.9746,0.4897
02:26:40.058,0.1055,-0.9180,0.4473
02:26:40.069,0.0869,-0.9424,0.4380
02:26:40.080,0.1240,-0.8711,0.4370
02:26:40.092,0.1177,-0.8140,0.4585
02:26:40.105,0.1191,-0.6865,0.4482
02:26:40.116,0.1396,-0.6050,0.3975
02:26:40.128,0.1646,-0.5483,0.3706
02:26:40.139,0.1748,-0.5107,0.4028
02:26:40.152,0.1763,-0.4556,0.3335
02:26:40.164,0.1768,-0.4004,0.2930
02:26:40.178,0.1523,-0.3340,0.2666
02:26:40.189,0.1646,-0.3184,0.2241
02:26:40.202,0.1680,-0.3223,0.2222
02:26:40.217,0.1558,-0.3784,0.2339
02:26:40.230,0.1206,-0.4268,0.2100
02:26:40.241,0.1108,-0.4355,0.2109
02:26:40.253,0.0532,-0.4717,0.1836
02:26:40.264,0.0386,-0.5176,0.1675
02:26:40.277,0.0205,-0.5962,0.1860
02:26:40.290,0.0005,-0.6870,0.2119
02:26:40.303,-0.0278,-0.7354,0.1904
02:26:40.316,-0.0669,-0.7471,0.1948
02:26:40.332,-0.0703,-0.7588,0.1714
02:26:40.344,-0.1138,-0.8491,0.1665
02:26:40.355,-0.1289,-0.9365,0.2075
02:26:40.366,-0.1294,-1.0059,0.1958
02:26:40.377,-0.1128,-0.9570,0.2012
02:26:40.391,-0.1143,-0.8921,0.1611
02:26:40.402,-0.1309,-0.8252,0.0972
02:26:40.415,-0.1538,-0.8315,0.0410
02:26:40.426,-0.1382,-0.9307,0.0649
02:26:40.438,-0.1421,-0.9941,0.1133
02:26:40.449,-0.1318,-1.0557,0.0830
02:26:40.461,-0.1299,-1.0234,0.0464
02:26:40.473,-0.1021,-1.0103,0.0073
02:26:40.487,-0.1143,-1.0527,-0.0107
02:26:40.500,-0.0967,-1.2749,-0.0132
02:26:40.512,-0.0669,-1.5342,0.0000
02:26:40.525,-0.0112,-1.7686,0.0063
02:26:40.542,0.2109,-1.7056,0.1851
02:26:40.553,0.3052,-1.6772,0.3789
02:26:40.565,0.4126,-1.6582,0.4819
02:26:40.576,0.4507,-1.6382,0.5366
02:26:40.588,0.4878,-1.7402,0.4976
02:26:40.601,0.4746,-1.7373,0.2729
02:26:40.612,0.5420,-1.5894,0.1030
02:26:40.623,0.4717,-1.4453,-0.0532
02:26:40.637,0.4126,-1.1885,-0.1206
02:26:40.649,0.3774,-1.0903,-0.1846
02:26:40.660,0.3145,-0.9463,-0.2148
02:26:40.671,0.2715,-0.8628,-0.1406
02:26:40.685,0.2676,-0.8687,-0.0244
02:26:40.696,0.2031,-0.7417,-0.0117
02:26:40.707,0.1494,-0.6772,-0.0044
02:26:40.720,0.0967,-0.6411,-0.0190
02:26:40.734,0.1104,-0.7432,0.0513
02:26:40.746,0.1885,-0.7979,0.0439
02:26:40.762,0.2368,-0.8789,0.0884
02:26:40.773,0.2544,-0.9521,0.0747
02:26:40.790,0.2695,-1.0459,0.0298
02:26:40.801,0.2817,-1.0762,0.0391
02:26:40.813,0.2324,-1.0776,0.0039
02:26:40.827,0.1919,-1.0391,-0.0103
02:26:40.839,0.2104,-1.0234,0.0049
02:26:40.861,0.2021,-1.0220,-0.0425
02:26:40.872,0.2324,-0.9502,-0.0034
02:26:40.884,0.2417,-0.8979,0.0190
02:26:40.896,0.2656,-0.8755,0.0347
02:26:40.907,0.2192,-0.8271,0.0176
02:26:40.921,0.2710,-0.8799,0.0415
02:26:40.932,0.2930,-0.9141,0.0430
02:26:40.944,0.3950,-0.9521,0.0669
02:26:40.956,0.4917,-0.9668,0.0591
02:26:40.975,0.5190,-1.0439,0.0132
02:26:40.987,0.4556,-1.0312,0.0171
02:26:40.998,0.4790,-1.0063,0.0010
02:26:41.009,0.4419,-1.0137,-0.0039
02:26:41.020,0.4302,-1.0249,-0.0142
02:26:41.031,0.4492,-1.0132,-0.0068
02:26:41.045,0.4160,-1.0664,-0.0229
02:26:41.057,0.3779,-1.0610,-0.0156
02:26:41.068,0.2949,-1.0664,-0.0400
02:26:41.079,0.3169,-1.0815,0.0337
02:26:41.096,0.1997,-1.0991,-0.0225
02:26:41.107,0.2109,-1.0889,0.0195
02:26:41.118,0.1772,-1.0791,0.0288
02:26:41.130,0.1357,-1.0532,0.0386
02:26:41.143,0.0698,-1.0537,0.0298
02:26:41.155,0.0337,-0.9951,-0.0093
02:26:41.170,-0.0112,-1.0366,0.0396
02:26:41.182,-0.0234,-1.0171,0.0435
02:26:41.194,-0.0708,-1.0210,0.0186
02:26:41.206,-0.1421,-1.0376,0.0127
02:26:41.217,-0.2202,-1.0405,0.0264
02:26:41.228,-0.2661,-1.0312,0.0186
02:26:41.242,-0.3418,-0.9858,0.0264
02:26:41.254,-0.3979,-0.9375,-0.0161
02:26:41.265,-0.4702,-0.8789,0.0005
02:26:41.281,-0.5332,-0.7739,-0.0127
02:26:41.292,-0.5693,-0.7031,-0.0132
02:26:41.308,-0.6699,-0.5928,-0.0977
02:26:41.322,-0.6592,-0.4214,-0.0244
02:26:41.333,-0.7266,-0.3862,0.0005
02:26:41.345,-0.7642,-0.3779,0.0254
02:26:41.360,-0.7979,-0.3770,0.0420
02:26:41.372,-0.8101,-0.3711,0.0684
02:26:41.388,-0.8096,-0.3433,0.1240
02:26:41.402,-0.8779,-0.2632,0.0562
02:26:41.414,-0.9067,-0.2085,0.0298
02:26:41.425,-0.9116,-0.1436,0.0215
02:26:41.437,-0.9385,-0.0825,0.0488
02:26:41.448,-0.9482,-0.0151,0.0620
02:26:41.459,-0.9507,0.0601,0.0327
02:26:41.471,-0.9277,0.1348,0.0254
02:26:41.482,-0.9106,0.1890,0.0488
02:26:41.495,-0.9287,0.2759,0.0063
02:26:41.508,-0.9380,0.3447,-0.0054
02:26:41.520,-0.9092,0.4194,-0.0264
02:26:41.534,-0.8652,0.4624,0.0029
02:26:41.545,-0.8779,0.5073,-0.0186
02:26:41.557,-0.8623,0.5190,0.0195
02:26:41.568,-0.8550,0.5229,0.0381
02:26:41.589,-0.8521,0.5073,0.0103
02:26:41.600,-0.8438,0.5024,0.0308
02:26:41.612,-0.8242,0.5303,0.0488
02:26:41.623,-0.8345,0.5400,0.0562
02:26:41.634,-0.8701,0.5845,0.0298
02:26:41.646,-0.8589,0.6113,0.0386
02:26:41.657,-0.8652,0.6553,0.0308
02:26:41.670,-0.8657,0.6772,0.0166
02:26:41.690,-0.8203,0.6953,0.0015
02:26:41.701,-0.8276,0.6978,-0.0073
02:26:41.712,-0.8311,0.6748,0.0142
02:26:41.725,-0.8052,0.6553,0.0430
02:26:41.738,-0.8340,0.6118,-0.0371
02:26:41.749,-0.7808,0.5869,-0.0059
02:26:41.764,-0.8218,0.5146,0.0195
02:26:41.776,-0.8750,0.4473,0.0332
02:26:41.790,-0.9238,0.3779,0.0513
02:26:41.801,-0.9458,0.3301,0.0698
02:26:41.815,-0.9517,0.2773,0.0474
02:26:41.827,-0.9658,0.2598,0.0107
02:26:41.839,-0.9888,0.2197,-0.0181
02:26:41.853,-0.9814,0.1631,-0.0410
02:26:41.865,-0.9790,0.0913,-0.0557
02:26:41.878,-0.9331,0.0088,-0.0464
02:26:41.894,-0.8975,-0.0786,-0.0298
02:26:41.906,-0.8276,-0.1938,0.0195
02:26:41.920,-0.8359,-0.2837,0.0073
02:26:41.931,-0.8145,-0.3276,0.0293
02:26:41.942,-0.8076,-0.3667,0.0439
02:26:41.954,-0.8008,-0.4238,0.0830
02:26:41.969,-0.7695,-0.4668,0.1006
02:26:41.981,-0.7437,-0.5186,0.0781
02:26:41.998,-0.7275,-0.6050,0.0469
02:26:42.009,-0.6733,-0.6709,0.0439
02:26:42.020,-0.6851,-0.7939,0.0488
02:26:42.031,-0.6670,-0.8320,0.0322
02:26:42.044,-0.6113,-0.8970,0.0645
02:26:42.056,-0.5928,-0.9292,0.0054
02:26:42.067,-0.5684,-0.9517,0.0059
02:26:42.079,-0.5522,-0.9756,-0.0518
02:26:42.090,-0.4985,-1.0273,-0.0771
02:26:42.101,-0.4312,-1.0732,-0.0571
02:26:42.112,-0.3745,-1.1323,-0.0332
02:26:42.124,-0.3110,-1.1069,-0.0293
02:26:42.135,-0.2837,-1.0625,-0.0303
02:26:42.146,-0.3193,-1.0288,-0.0205
02:26:42.165,-0.4385,-0.9453,-0.0400
02:26:42.178,-0.4888,-0.9419,-0.0293
02:26:42.190,-0.5151,-0.9404,0.0146
02:26:42.204,-0.5327,-0.9326,0.0254
02:26:42.215,-0.5737,-0.9502,-0.0234
02:26:42.230,-0.5767,-1.0684,-0.0317
02:26:42.242,-0.6465,-1.0112,-0.0186
02:26:42.253,-0.6938,-0.9272,-0.0186
02:26:42.267,-0.6475,-0.8203,0.0293
02:26:42.278,-0.6157,-0.7998,0.0791
02:26:42.289,-0.5796,-0.8525,0.1670
02:26:42.301,-0.5576,-0.9951,0.1533
02:26:42.313,-0.5674,-1.0352,0.0874
02:26:42.324,-0.5430,-0.9561,0.0806
02:26:42.336,-0.5420,-0.9180,0.0146
02:26:42.350,-0.5479,-0.8550,0.0132
02:26:42.362,-0.5083,-0.7988,0.0674
02:26:42.374,-0.5425,-0.7661,0.0718
02:26:42.388,-0.5640,-0.6797,0.1260
02:26:42.400,-0.5640,-0.6064,0.1631
02:26:42.418,-0.6509,-0.5483,0.0801
02:26:42.437,-0.7134,-0.6172,0.0249
02:26:42.449,-0.7812,-0.5601,0.0234
02:26:42.460,-0.8184,-0.5244,0.0005
02:26:42.472,-0.7808,-0.4160,0.0581
02:26:42.484,-0.8101,-0.3916,-0.0020
02:26:42.497,-0.8193,-0.3813,-0.0415
02:26:42.509,-0.8105,-0.3638,-0.0562
02:26:42.522,-0.8345,-0.3975,-0.0483
02:26:42.534,-0.9160,-0.3452,-0.1426
02:26:42.546,-0.9048,-0.3286,-0.0728
02:26:42.559,-0.9146,-0.3081,-0.0366
02:26:42.574,-0.9097,-0.2124,-0.0811
02:26:42.586,-0.9062,-0.1245,-0.1274
02:26:42.598,-0.8433,-0.0757,-0.1279
02:26:42.610,-0.8486,-0.0786,-0.1523
02:26:42.622,-0.8677,-0.0830,-0.1523
02:26:42.634,-0.8740,-0.0918,-0.1416
02:26:42.645,-0.8804,-0.0303,-0.1294
02:26:42.656,-0.8984,0.0298,-0.1743
02:26:42.670,-0.8755,0.0415,-0.1304
02:26:42.681,-0.8301,0.0151,-0.1138
02:26:42.692,-0.8179,-0.0303,-0.1099
02:26:42.704,-0.7578,-0.0903,-0.0142
02:26:42.717,-0.8335,-0.0469,-0.0190
02:26:42.730,-0.9160,-0.0181,-0.0005
02:26:42.746,-1.0640,0.0269,0.0000
02:26:42.759,-1.1919,0.0410,0.0503
02:26:42.772,-1.3018,0.0469,0.0894
02:26:42.786,-1.3159,0.0112,0.1787
02:26:42.798,-1.3164,-0.0449,0.1968
02:26:42.812,-1.2437,-0.1113,0.2227
02:26:42.824,-1.1831,-0.2031,0.1440
02:26:42.842,-1.0767,-0.2676,0.1157
02:26:42.853,-0.9736,-0.3145,0.0161
02:26:42.864,-0.8916,-0.3257,0.0010
02:26:42.876,-0.8608,-0.3354,-0.0103
02:26:42.887,-0.7593,-0.3428,-0.0308
02:26:42.898,-0.8472,-0.3452,-0.0957
02:26:42.910,-0.8374,-0.3086,-0.0791
02:26:42.923,-0.8857,-0.2925,-0.0889
02:26:42.935,-0.9365,-0.2896,-0.0991
02:26:42.947,-0.9800,-0.2847,-0.0708
02:26:42.960,-1.0127,-0.2437,-0.0225
02:26:42.972,-1.0854,-0.2144,-0.0029
02:26:42.985,-1.1055,-0.1670,0.0356
02:26:43.001,-1.0186,-0.1499,0.0894
02:26:43.018,-0.9790,-0.1724,0.0425
02:26:43.031,-0.9365,-0.1919,-0.0269
02:26:43.044,-0.9326,-0.1914,-0.0420
02:26:43.056,-0.9199,-0.2236,-0.0469
02:26:43.069,-0.8916,-0.2456,0.0088
02:26:43.081,-0.9858,-0.2227,-0.0146
02:26:43.092,-0.9331,-0.2583,-0.0034
02:26:43.105,-0.9648,-0.2944,0.0122
02:26:43.116,-0.9775,-0.2998,-0.0020
02:26:43.127,-0.9810,-0.3120,0.0049
02:26:43.139,-0.9419,-0.3379,0.0171
02:26:43.151,-0.9717,-0.3540,0.0010
02:26:43.162,-0.9873,-0.3438,-0.0078
02:26:43.173,-0.9487,-0.3472,0.0142
02:26:43.185,-0.9741,-0.3257,-0.0107
02:26:43.205,-0.9595,-0.3101,-0.0552
02:26:43.217,-0.9370,-0.2949,-0.0137
02:26:43.228,-0.9277,-0.2764,-0.0107
02:26:43.244,-0.9297,-0.2490,-0.0254
02:26:43.256,-0.9556,-0.2383,0.0000
02:26:43.269,-0.9253,-0.2241,0.0444
02:26:43.283,-0.9468,-0.2188,0.0269
02:26:43.295,-0.9639,-0.2051,0.0107
02:26:43.307,-0.9717,-0.2109,0.0005
02:26:43.320,-0.9570,-0.1953,-0.0273
02:26:43.332,-0.9653,-0.1865,0.0059
02:26:43.346,-0.8965,-0.1846,0.0474
02:26:43.358,-0.9565,-0.1924,-0.0010
02:26:43.373,-0.9336,-0.1943,-0.0049
02:26:43.385,-0.9629,-0.2026,-0.0029
02:26:43.398,-0.9897,-0.2070,-0.0469
02:26:43.410,-0.9756,-0.2227,-0.0542
02:26:43.423,-0.9624,-0.2256,-0.0078
02:26:43.437,-0.9468,-0.2446,0.0166
02:26:43.451,-0.9570,-0.2373,-0.0176
02:26:43.462,-0.9634,-0.2505,-0.0151
02:26:43.474,-0.9580,-0.2563,-0.0347
02:26:43.485,-0.9492,-0.2808,0.0151
02:26:43.496,-0.8418,-0.1743,0.1152
02:26:43.507,-0.9692,-0.2588,-0.0039
02:26:43.525,-0.9937,-0.2764,-0.0474
02:26:43.537,-0.9712,-0.2319,-0.0386
02:26:43.548,-0.9429,-0.1982,0.0205
02:26:43.560,-0.9180,-0.2192,-0.0278
02:26:43.571,-0.9795,-0.2817,-0.0771
02:26:43.582,-1.0059,-0.3774,-0.0254
02:26:43.596,-1.0513,-0.4355,-0.0610
02:26:43.607,-1.0293,-0.4561,-0.0396
02:26:43.618,-1.0059,-0.3867,-0.1050
02:26:43.629,-1.0801,-0.2896,-0.1582
02:26:43.641,-1.0635,-0.1597,-0.1719
02:26:43.652,-1.1050,-0.1045,-0.1528
02:26:43.663,-1.1436,-0.1445,-0.0923
02:26:43.674,-1.1475,-0.1938,-0.0620
02:26:43.687,-1.1133,-0.2578,-0.0137
02:26:43.698,-1.0771,-0.2607,-0.0200
02:26:43.709,-0.9893,-0.2192,0.0518
02:26:43.720,-0.9419,-0.1714,0.0332
02:26:43.734,-0.8667,-0.2217,0.0522
02:26:43.746,-0.8799,-0.2744,0.0923
02:26:43.759,-0.8198,-0.3945,0.1567
02:26:43.771,-0.8394,-0.4365,0.1333
02:26:43.782,-0.7554,-0.3901,0.2109
02:26:43.794,-0.6899,-0.3252,0.2368
02:26:43.805,-0.5684,-0.3149,0.3179
02:26:43.816,-0.5005,-0.2661,0.2695
02:26:43.829,-0.5562,-0.2178,0.1626
02:26:43.840,-0.4775,-0.2354,0.2261
02:26:43.851,-0.4961,-0.2856,0.2139
02:26:43.864,-0.5464,-0.3213,0.1626
02:26:43.875,-0.6089,-0.3276,0.1094
02:26:43.888,-0.7354,-0.4424,0.0688
02:26:43.900,-0.8467,-0.5923,-0.0361
02:26:43.913,-0.9727,-0.7695,-0.1904
02:26:43.924,-1.0923,-0.9233,-0.3052
02:26:43.936,-1.1577,-0.9131,-0.4336
02:26:43.951,-1.1816,-0.8569,-0.4429
02:26:43.962,-1.1299,-0.8125,-0.4199
02:26:43.974,-0.9727,-0.6958,-0.2427
02:26:43.985,-0.9976,-0.6182,-0.1323
02:26:43.998,-0.9492,-0.5308,0.0693
02:26:44.010,-0.9219,-0.4502,0.1523
02:26:44.023,-0.8931,-0.3911,0.1431
02:26:44.037,-0.8882,-0.3589,0.1299
02:26:44.052,-0.8770,-0.3115,0.0835
02:26:44.064,-0.8599,-0.2788,0.0747
02:26:44.078,-0.7710,-0.3521,0.0381
02:26:44.089,-0.7637,-0.3193,-0.0156
02:26:44.109,-0.8540,-0.4082,-0.0874
02:26:44.121,-0.9053,-0.5190,-0.1338
02:26:44.132,-0.9077,-0.5786,-0.0952
02:26:44.145,-0.9312,-0.5347,-0.0586
02:26:44.157,-0.9351,-0.4932,-0.0713
02:26:44.170,-0.9102,-0.4995,-0.0688
02:26:44.183,-0.8330,-0.4385,0.0283
02:26:44.195,-0.8159,-0.4565,0.0347
02:26:44.207,-0.7920,-0.4580,0.0415
02:26:44.220,-0.7920,-0.4766,0.0044
02:26:44.232,-0.7871,-0.4888,-0.0234
02:26:44.245,-0.7993,-0.4810,-0.0449
02:26:44.258,-0.8052,-0.4590,-0.0688
02:26:44.270,-0.8657,-0.4585,-0.0728
02:26:44.282,-0.8867,-0.4912,-0.0654
02:26:44.294,-0.9355,-0.5083,-0.0488
02:26:44.307,-0.9556,-0.5112,-0.0190
02:26:44.320,-0.8779,-0.4961,0.0493
02:26:44.334,-0.8999,-0.4590,0.1055
02:26:44.347,-0.8765,-0.5322,0.1157
02:26:44.359,-0.8774,-0.5229,0.0674
02:26:44.371,-0.8970,-0.4771,-0.0244
02:26:44.388,-0.8208,-0.4834,0.0063
02:26:44.399,-0.8105,-0.4824,-0.0269
02:26:44.412,-0.8501,-0.4722,-0.0771
02:26:44.424,-0.8320,-0.4766,-0.0630
02:26:44.437,-0.8374,-0.5171,-0.0913
02:26:44.449,-0.8428,-0.5195,-0.0708
02:26:44.462,-0.9556,-0.4795,-0.1079
02:26:44.475,-1.0044,-0.4351,0.0171
02:26:44.490,-0.9937,-0.4995,0.1230
02:26:44.502,-0.9668,-0.5371,0.1333
02:26:44.515,-1.0063,-0.5146,0.0898
02:26:44.527,-1.0439,-0.5068,0.0640
02:26:44.543,-1.0552,-0.5596,0.0708
02:26:44.557,-1.0132,-0.5698,0.0859
02:26:44.570,-0.9707,-0.6138,0.0181
02:26:44.582,-0.9282,-0.5879,-0.0244
02:26:44.595,-0.8530,-0.5625,-0.0283
02:26:44.608,-0.7734,-0.5508,0.0298
02:26:44.619,-0.7686,-0.5542,-0.0137
02:26:44.630,-0.7124,-0.4795,0.0513
02:26:44.641,-0.7314,-0.4614,0.0615
02:26:44.653,-0.7246,-0.4116,0.0986
02:26:44.664,-0.7432,-0.4116,0.1274
02:26:44.676,-0.7197,-0.3628,0.1470
02:26:44.687,-0.6929,-0.3638,0.1577
02:26:44.698,-0.6948,-0.3320,0.1611
02:26:44.710,-0.7056,-0.3525,0.1304
02:26:44.722,-0.7246,-0.4482,0.0957
02:26:44.735,-0.6885,-0.4482,0.0547
02:26:44.747,-0.6631,-0.5239,0.0435
02:26:44.759,-0.6543,-0.4839,-0.0010
02:26:44.772,-0.6333,-0.4497,-0.0083
02:26:44.785,-0.6528,-0.3975,-0.0298
02:26:44.798,-0.7432,-0.3701,-0.0674
02:26:44.811,-0.8198,-0.3442,-0.1079
02:26:44.824,-0.8911,-0.3179,-0.1055
02:26:44.836,-1.0303,-0.2695,-0.1523
02:26:44.847,-1.0981,-0.1997,-0.1377
02:26:44.859,-1.1636,-0.1704,-0.1182
02:26:44.870,-1.2158,-0.1504,-0.0776
02:26:44.882,-1.2925,-0.1865,-0.0674
02:26:44.893,-1.2856,-0.2183,0.0005
02:26:44.905,-1.2744,-0.2534,0.0352
02:26:44.918,-1.2031,-0.2490,0.0879
02:26:44.929,-1.0952,-0.2354,0.1401
02:26:44.942,-1.0078,-0.2354,0.1147
02:26:44.955,-0.9028,-0.2451,0.0225
02:26:44.967,-0.7954,-0.2812,-0.0391
02:26:44.981,-0.8105,-0.3672,-0.1685
02:26:45.001,-0.8071,-0.4004,-0.1958
02:26:45.012,-0.8315,-0.4360,-0.1689
02:26:45.026,-0.8618,-0.4463,-0.1343
02:26:45.037,-0.8711,-0.4536,-0.0562
02:26:45.051,-0.9253,-0.4761,-0.0317
02:26:45.063,-0.9443,-0.4766,0.0005
02:26:45.076,-0.9668,-0.4668,0.0127
02:26:45.088,-0.9966,-0.4565,0.0308
02:26:45.102,-0.9829,-0.4312,0.0493
02:26:45.114,-0.9277,-0.4092,0.0493
02:26:45.126,-0.9116,-0.3813,0.0269
02:26:45.137,-0.9150,-0.3750,-0.0059
02:26:45.149,-0.9126,-0.3457,-0.0654
02:26:45.162,-0.9136,-0.3105,-0.0864
02:26:45.173,-0.9048,-0.3115,-0.0674
02:26:45.184,-0.8999,-0.3003,-0.0698
02:26:45.196,-0.9121,-0.2900,-0.0327
02:26:45.207,-0.9307,-0.3013,-0.0278
02:26:45.219,-0.9785,-0.2900,-0.0386
02:26:45.231,-0.9644,-0.3423,-0.0527
02:26:45.244,-0.9224,-0.2266,-0.0576
02:26:45.256,-0.9790,-0.2485,0.0054
02:26:45.273,-0.9946,-0.2700,-0.0229
02:26:45.284,-0.9766,-0.2827,-0.0015
02:26:45.298,-0.9224,-0.2861,0.0288
02:26:45.309,-1.0322,-0.2896,-0.1084
02:26:45.321,-0.9341,-0.3218,-0.0254
02:26:45.334,-0.9067,-0.3125,-0.0469
02:26:45.349,-0.9497,-0.2900,-0.1040
02:26:45.360,-0.8286,-0.1694,-0.0889
02:26:45.372,-0.7104,-0.2021,-0.0986
02:26:45.383,-0.7095,-0.0972,-0.0962
02:26:45.394,-0.7041,0.1631,-0.0928
02:26:45.405,-0.9468,-0.0259,0.0220
02:26:45.416,-1.1265,-0.2769,0.1772
02:26:45.427,-1.0610,-0.7876,0.2803
02:26:45.445,-1.3130,-0.9839,0.0405
02:26:45.456,-1.1768,-0.8726,-0.0449
02:26:45.467,-1.0063,-0.3740,-0.1094
02:26:45.482,-0.8999,-0.1685,-0.0522
02:26:45.493,-0.8643,-0.1636,0.0024
02:26:45.505,-0.9497,-0.0981,-0.0215
02:26:45.516,-0.9482,-0.1021,0.0449
02:26:45.527,-0.9858,-0.1489,0.0576
02:26:45.541,-1.0229,-0.2148,0.1001
02:26:45.553,-1.0361,-0.2451,0.1406
02:26:45.566,-1.0146,-0.2744,0.2065
02:26:45.577,-0.9795,-0.3813,0.1997
02:26:45.588,-0.9292,-0.4258,0.1650
02:26:45.599,-0.8696,-0.4834,0.1313
02:26:45.610,-0.7661,-0.5000,0.0049
02:26:45.622,-0.7344,-0.4570,-0.0547
02:26:45.636,-0.6958,-0.3281,-0.0649
02:26:45.648,-0.6768,-0.3188,-0.0449
02:26:45.660,-0.6919,-0.3257,-0.1074
02:26:45.672,-0.7349,-0.3306,-0.1392
02:26:45.688,-0.8105,-0.4263,-0.1816
02:26:45.701,-0.9468,-0.4707,-0.2515
02:26:45.714,-0.9038,-0.4146,-0.1997
02:26:45.728,-0.8887,-0.3687,-0.1138
02:26:45.740,-0.9072,-0.3330,-0.0356
02:26:45.751,-0.9717,-0.2808,-0.0195
02:26:45.763,-0.9795,-0.2290,0.0522
02:26:45.775,-0.9780,-0.1646,0.0889
02:26:45.786,-0.9941,-0.1875,0.1060
02:26:45.798,-0.9976,-0.2671,0.1338
02:26:45.810,-1.0347,-0.2817,0.1460
02:26:45.826,-1.0737,-0.2437,0.0903
02:26:45.838,-1.0596,-0.2056,0.0693
02:26:45.851,-1.0278,-0.2036,0.0864
02:26:45.863,-1.0063,-0.2407,0.0635
02:26:45.874,-0.9985,-0.2871,0.0298
02:26:45.885,-0.9854,-0.3281,-0.0200
02:26:45.898,-0.9482,-0.3340,-0.0469
02:26:45.910,-0.9580,-0.3184,-0.1123
02:26:45.922,-0.9355,-0.3320,-0.0557
02:26:45.934,-0.9121,-0.3252,-0.0029
02:26:45.946,-0.9766,-0.3066,-0.0391
02:26:45.957,-0.9717,-0.3047,0.0098
02:26:45.969,-0.9819,-0.2637,-0.0225
02:26:45.986,-0.9604,-0.2124,0.0088
02:26:45.997,-0.9243,-0.2222,0.0127
02:26:46.009,-0.9316,-0.2739,-0.0132
02:26:46.022,-0.9478,-0.2954,-0.0371
02:26:46.033,-0.9688,-0.2939,-0.0225
02:26:46.049,-0.9741,-0.2476,-0.0229
02:26:46.060,-0.9243,-0.2383,0.0234
02:26:46.071,-0.9141,-0.2490,-0.0342
02:26:46.082,-0.8359,-0.3105,0.0083
02:26:46.094,-0.8506,-0.3047,-0.0220
02:26:46.105,-0.9873,-0.2651,-0.0854
02:26:46.117,-1.0815,-0.1738,-0.0781
02:26:46.129,-1.1094,-0.0762,-0.0527
02:26:46.140,-1.0767,-0.1079,-0.0190
02:26:46.152,-1.1465,-0.2007,-0.0015
02:26:46.165,-1.0518,-0.2144,0.0586
02:26:46.176,-1.0210,-0.2046,0.0532
02:26:46.187,-0.9468,-0.1758,0.0483
02:26:46.201,-0.9004,-0.1626,0.0269
02:26:46.212,-0.8579,-0.2412,0.0151
02:26:46.223,-0.8340,-0.3037,0.0332
02:26:46.235,-0.8135,-0.3652,0.0420
02:26:46.246,-0.8096,-0.4155,0.0708
02:26:46.258,-0.8242,-0.4517,0.0864
02:26:46.271,-0.8213,-0.4380,0.0503
02:26:46.284,-0.8188,-0.4043,0.0571
02:26:46.295,-0.8364,-0.4097,0.0308
02:26:46.306,-0.8579,-0.4004,0.0269
02:26:46.317,-0.9038,-0.3647,0.0103
02:26:46.329,-0.9434,-0.3271,-0.0005
02:26:46.340,-0.9648,-0.2568,0.0049
02:26:46.354,-0.9985,-0.2559,0.0298
02:26:46.366,-0.9834,-0.2744,0.0669
02:26:46.378,-0.9961,-0.3169,0.0366
02:26:46.389,-1.0034,-0.3931,-0.0474
02:26:46.400,-1.0020,-0.3833,-0.0889
02:26:46.412,-0.9980,-0.4023,-0.0649
02:26:46.426,-0.9497,-0.4199,-0.0352
02:26:46.437,-0.9756,-0.4414,-0.0259
02:26:46.451,-0.9595,-0.4575,-0.0161
02:26:46.462,-0.8921,-0.4028,-0.0200
02:26:46.473,-0.8574,-0.3340,-0.0010
02:26:46.487,-0.8696,-0.3408,-0.0293
02:26:46.499,-0.8569,-0.3452,-0.0674
02:26:46.511,-0.8364,-0.2778,-0.0361
02:26:46.522,-0.8350,-0.3203,0.0034
02:26:46.534,-0.8857,-0.2925,-0.0288
02:26:46.545,-0.8755,-0.3921,-0.0464
02:26:46.557,-0.9531,-0.4414,-0.0459
02:26:46.568,-0.9536,-0.4233,-0.0132
02:26:46.582,-1.0420,-0.4243,0.0205
02:26:46.593,-1.1133,-0.4370,0.0464
02:26:46.605,-1.0947,-0.5161,0.0322
02:26:46.616,-1.0864,-0.5708,-0.0439
02:26:46.627,-1.0703,-0.4756,-0.0239
02:26:46.638,-1.0083,-0.4580,-0.0605
02:26:46.654,-0.9199,-0.3564,-0.0049
02:26:46.667,-0.8540,-0.2856,0.0762
02:26:46.679,-0.8262,-0.1929,0.1348
02:26:46.693,-0.8203,-0.0874,0.2266
02:26:46.705,-0.8564,0.0610,0.2646
02:26:46.716,-0.9194,0.1387,0.3057
02:26:46.727,-0.9590,0.1855,0.3452
02:26:46.738,-0.9995,0.0942,0.2671
02:26:46.757,-0.9634,0.3945,0.1631
02:26:46.768,-0.9150,0.3501,0.0518
02:26:46.779,-0.8701,0.3262,0.0151
02:26:46.791,-0.8667,0.2666,-0.0244
02:26:46.805,-0.8716,0.2222,-0.0552
02:26:46.816,-0.8818,0.1455,-0.0625
02:26:46.830,-0.8442,0.0342,-0.0083
02:26:46.843,-0.7993,-0.0601,0.0171
02:26:46.863,-0.7798,-0.0923,0.0830
02:26:46.875,-0.8979,-0.1826,0.1021
02:26:46.888,-0.9268,-0.3564,0.3027
02:26:46.900,-1.1191,-0.3931,0.0942
02:26:46.913,-1.2344,-0.2671,-0.0439
02:26:46.928,-1.2583,-0.0615,-0.1357
02:26:46.939,-1.2188,-0.0142,-0.1689
02:26:46.951,-1.1372,-0.0146,-0.1265
02:26:46.962,-1.1270,-0.0146,-0.1675
02:26:46.974,-1.0835,-0.0464,-0.1455
02:26:46.985,-1.0264,-0.1089,-0.1113
02:26:46.998,-0.9355,-0.1724,-0.0479
02:26:47.010,-0.9404,-0.1211,-0.0684
02:26:47.022,-0.9287,-0.1797,-0.0249
02:26:47.033,-0.9463,-0.1230,-0.0122
02:26:47.047,-0.9224,-0.0107,-0.0596
02:26:47.059,-0.9033,0.0181,-0.0488
02:26:47.073,-0.9160,0.0269,-0.0542
02:26:47.091,-0.9736,0.0439,-0.0244
02:26:47.103,-0.9736,0.0645,-0.0254
02:26:47.116,-0.9570,0.0635,0.0103
02:26:47.128,-1.0303,0.0723,-0.0293
02:26:47.141,-1.0132,0.0684,-0.0254
02:26:47.162,-1.0298,0.0845,-0.0708
02:26:47.174,-1.0083,0.0439,-0.0605
02:26:47.190,-0.9805,0.0444,-0.0430
02:26:47.201,-0.9722,0.0547,-0.0835
02:26:47.212,-0.9375,0.0410,-0.0605
02:26:47.226,-0.9785,0.0586,-0.0757
02:26:47.239,-0.9927,0.0605,-0.0791
02:26:47.255,-1.0117,0.0576,-0.1104
02:26:47.267,-0.9692,0.0737,-0.0234
02:26:47.279,-0.9976,0.0737,-0.0244
02:26:47.301,-0.7505,-0.1987,-0.1528
02:26:47.312,-0.9858,-0.1104,-0.0850
02:26:47.324,-1.0635,-0.0435,0.0010
02:26:47.337,-1.0581,0.1611,0.1079
02:26:47.349,-1.0742,0.1187,0.1108
02:26:47.361,-1.0449,0.0444,0.1455
02:26:47.376,-1.0669,-0.1270,0.1016
02:26:47.389,-1.0146,-0.1138,0.0059
02:26:47.402,-0.9341,-0.0234,-0.0171
02:26:47.413,-0.9897,0.0425,-0.1318
02:26:47.424,-1.1631,0.0127,-0.2300
02:26:47.435,-1.1157,-0.0054,-0.1851
02:26:47.447,-0.9883,-0.0410,-0.1074
02:26:47.462,-0.8560,0.0107,-0.1338
02:26:47.474,-0.8901,0.0400,-0.1289
02:26:47.485,-0.9404,0.0771,-0.1597
02:26:47.500,-1.0825,0.1426,-0.1602
02:26:47.512,-1.1987,0.2437,-0.0713
02:26:47.524,-1.2822,0.2656,0.0566
02:26:47.537,-1.2900,0.3057,0.1113
02:26:47.549,-1.2202,0.3989,0.1387
02:26:47.563,-1.1011,0.5601,0.1733
02:26:47.576,-0.9385,0.5552,0.2349
02:26:47.590,-0.8594,0.4497,0.2881
02:26:47.602,-0.7388,0.3013,0.3569
02:26:47.614,-0.6738,0.1689,0.3340
02:26:47.626,-0.6235,0.0664,0.2783
02:26:47.639,-0.6001,-0.0337,0.2056
02:26:47.656,-0.5405,-0.1851,0.1968
02:26:47.669,-0.5054,-0.2207,0.2583
02:26:47.682,-0.6748,0.0244,0.1558
02:26:47.694,-0.8628,0.1523,0.0503
02:26:47.709,-1.0498,0.2832,-0.1309
02:26:47.721,-1.1343,0.2354,-0.3145
02:26:47.735,-1.1284,0.0215,-0.4702
02:26:47.749,-1.1401,-0.1265,-0.5806
02:26:47.760,-1.0850,-0.1753,-0.5571
02:26:47.774,-1.1484,-0.0850,-0.5249
02:26:47.790,-1.1108,0.0991,-0.3232
02:26:47.805,-0.9619,0.1929,-0.0640
02:26:47.817,-0.9429,0.1133,0.0972
02:26:47.828,-0.9512,0.0596,0.0581
02:26:47.840,-0.9717,0.0786,0.0464
02:26:47.856,-1.0684,0.1704,0.0581
02:26:47.868,-1.0737,0.1885,0.0200
02:26:47.881,-1.1206,0.1377,-0.0381
02:26:47.892,-1.0688,0.0947,0.0122
02:26:47.905,-1.0229,0.0752,-0.0137
02:26:47.916,-0.9702,0.0527,-0.0151
02:26:47.929,-0.9326,0.0474,-0.0161
02:26:47.940,-0.8755,0.0356,-0.0005
02:26:47.954,-0.8750,0.0186,0.0215
02:26:47.965,-0.8716,0.0098,0.0254
02:26:47.978,-0.9028,0.0166,0.0000
02:26:47.989,-0.9297,0.0049,-0.0488
02:26:48.004,-0.9585,0.0356,-0.0635
02:26:48.017,-0.9985,-0.0146,-0.0620
02:26:48.029,-1.0137,-0.0220,-0.0967
02:26:48.045,-1.0176,0.0020,-0.0718
02:26:48.056,-0.9536,0.0342,-0.0229
02:26:48.068,-0.9243,0.1147,0.1128
02:26:48.080,-0.9600,0.1226,0.0747
02:26:48.092,-1.0088,0.1450,0.0811
02:26:48.106,-1.0366,0.1118,0.0513
02:26:48.120,-1.1152,0.0342,-0.0186
02:26:48.132,-1.2148,0.0288,-0.0889
02:26:48.145,-1.1567,0.1064,-0.0400
02:26:48.157,-1.1489,-0.0366,-0.1494
02:26:48.170,-1.1704,-0.1899,-0.1943
02:26:48.189,-1.1216,-0.3481,-0.0894
02:26:48.201,-1.0596,-0.3174,-0.0024
02:26:48.215,-1.0225,-0.2524,0.0142
02:26:48.227,-0.9688,-0.2402,0.0713
02:26:48.240,-0.9976,-0.2720,0.0039
02:26:48.258,-1.0088,-0.4014,-0.0078
02:26:48.271,-0.9761,-0.4268,-0.0347
02:26:48.283,-0.9155,-0.3921,-0.0225
02:26:48.294,-0.8315,-0.3716,-0.0269
02:26:48.305,-0.7827,-0.4604,-0.0464
02:26:48.318,-0.7788,-0.4570,-0.0308
02:26:48.329,-0.7993,-0.3213,-0.0449
02:26:48.341,-0.8511,-0.2070,-0.0752
02:26:48.352,-0.8013,-0.2139,0.0391
02:26:48.368,-0.7261,-0.3604,0.2495
02:26:48.383,-0.6670,-0.3682,0.3438
02:26:48.394,-0.7031,-0.2837,0.3853
02:26:48.405,-0.7349,-0.2026,0.3037
02:26:48.417,-0.7554,-0.2012,0.2954
02:26:48.428,-0.8433,-0.2383,0.2676
02:26:48.439,-0.8242,-0.2944,0.3110
02:26:48.451,-0.8853,-0.2910,0.2490
02:26:48.462,-0.9219,-0.2188,0.1221
02:26:48.473,-0.9604,-0.2344,0.0039
02:26:48.485,-0.9688,-0.2524,-0.1060
02:26:48.496,-1.0166,-0.3291,-0.1426
02:26:48.509,-1.1372,-0.3052,-0.2734
02:26:48.523,-1.1763,-0.2852,-0.2749
02:26:48.537,-1.1685,-0.2856,-0.2593
02:26:48.549,-1.1450,-0.3276,-0.1997
02:26:48.561,-1.0801,-0.3765,-0.1455
02:26:48.575,-0.9546,-0.1890,-0.0508
02:26:48.587,-1.0737,-0.3906,-0.1045
02:26:48.600,-1.0322,-0.3550,-0.0488
02:26:48.615,-0.9688,-0.3008,-0.0332
02:26:48.630,-0.9883,-0.3066,-0.0503
02:26:48.641,-0.8950,-0.3262,-0.0171
02:26:48.653,-0.8599,-0.3223,-0.0288
02:26:48.666,-0.8574,-0.3125,-0.0249
02:26:48.679,-0.8599,-0.2935,-0.0088
02:26:48.697,-0.8667,-0.3101,-0.0435
02:26:48.709,-0.8560,-0.3257,-0.0356
02:26:48.722,-0.8984,-0.3423,-0.0601
02:26:48.736,-0.9180,-0.3735,-0.0439
02:26:48.753,-0.9478,-0.4131,-0.0752
02:26:48.764,-0.9658,-0.4399,-0.0752
02:26:48.776,-0.9370,-0.4263,-0.0381
02:26:48.787,-0.9546,-0.3730,-0.0366
02:26:48.798,-0.9888,-0.3174,-0.0571
02:26:48.814,-0.9492,-0.3257,-0.0439
02:26:48.825,-1.0103,-0.3340,-0.0928
02:26:48.843,-1.0195,-0.3687,-0.0420
02:26:48.856,-1.0483,-0.3984,-0.0073
02:26:48.869,-1.0562,-0.3799,0.0840
02:26:48.881,-1.0605,-0.3848,0.0674
02:26:48.894,-1.1035,-0.2983,0.0786
02:26:48.906,-1.1216,-0.3062,0.0840
02:26:48.918,-1.1113,-0.1968,0.1343
02:26:48.931,-1.0801,-0.2202,0.0942
02:26:48.943,-1.0493,-0.2061,0.0464
02:26:48.956,-0.9971,-0.2114,-0.0054
02:26:48.970,-0.9453,-0.1421,-0.0654
02:26:48.983,-0.8877,-0.0737,-0.1050
02:26:48.995,-0.8110,-0.0190,-0.1133
02:26:49.006,-0.9097,0.1060,-0.1084
02:26:49.017,-0.8613,0.2163,-0.0103
02:26:49.028,-0.7954,0.1724,0.0581
02:26:49.040,-0.7905,0.1191,0.0225
02:26:49.053,-0.7817,0.0864,-0.0107
02:26:49.065,-0.7485,-0.0620,0.0337
02:26:49.078,-0.7295,-0.1445,-0.0210
02:26:49.089,-0.7593,-0.2163,0.0913
02:26:49.100,-0.7471,-0.2969,0.1060
02:26:49.115,-0.8027,-0.3345,0.1323
02:26:49.128,-0.9194,-0.3730,0.1343
02:26:49.139,-1.0122,-0.3843,0.1382
02:26:49.151,-1.0693,-0.4795,0.1973
02:26:49.162,-1.1099,-0.5244,0.2842
02:26:49.173,-1.1299,-0.5259,0.3076
02:26:49.184,-1.1533,-0.5518,0.3403
02:26:49.196,-1.1343,-0.4907,0.3481
02:26:49.209,-1.0776,-0.4121,0.3364
02:26:49.221,-0.9810,-0.2407,0.3145
02:26:49.238,-0.9463,-0.0083,0.1733
02:26:49.249,-0.9229,-0.0083,0.1611
02:26:49.262,-0.9028,-0.1021,0.1533
02:26:49.274,-0.8594,-0.2993,0.1675
02:26:49.287,-0.8652,-0.3872,0.0879
02:26:49.300,-0.8901,-0.4321,-0.0020
02:26:49.312,-0.8491,-0.4434,-0.0117
02:26:49.324,-0.8696,-0.4399,-0.0889
02:26:49.337,-0.9229,-0.4604,-0.1133
02:26:49.350,-0.8965,-0.4829,-0.1187
02:26:49.364,-0.9316,-0.4668,-0.1143
02:26:49.376,-0.9419,-0.4390,-0.1138
02:26:49.392,-0.9727,-0.4258,-0.1338
02:26:49.403,-0.9756,-0.4185,-0.1108
02:26:49.415,-0.9741,-0.4307,-0.1099
02:26:49.430,-0.9028,-0.3608,-0.0342
02:26:49.442,-0.9814,-0.2905,-0.0957
02:26:49.454,-0.9199,-0.2510,-0.0073
02:26:49.473,-0.9360,-0.2422,0.0044
02:26:49.485,-0.9443,-0.2573,-0.0029
02:26:49.496,-0.9668,-0.2700,-0.0156
02:26:49.509,-0.9800,-0.1221,0.0010
02:26:49.524,-1.0977,-0.0776,-0.0229
02:26:49.536,-1.1807,-0.2256,-0.0293
02:26:49.548,-1.1274,-0.6006,0.0947
02:26:49.560,-1.0498,-0.6743,0.3042
02:26:49.572,-1.0679,-0.3730,0.5088
02:26:49.584,-1.1597,-0.3794,0.3872
02:26:49.597,-1.2500,-0.3555,0.1460
02:26:49.609,-1.2090,-0.2271,0.0220
02:26:49.620,-1.0356,-0.2285,-0.0537
02:26:49.632,-0.9165,-0.2485,-0.0811
02:26:49.643,-0.8301,-0.2017,-0.1235
02:26:49.656,-0.7959,-0.1807,-0.1187
02:26:49.667,-0.7505,-0.1133,-0.1274
02:26:49.679,-0.7612,-0.1123,-0.0820
02:26:49.692,-0.7705,-0.0664,-0.0107
02:26:49.704,-0.7598,-0.0605,0.0659
02:26:49.716,-0.8159,-0.0562,0.0757
02:26:49.730,-0.8506,-0.0044,0.0962
02:26:49.742,-0.9287,-0.0479,0.0610
02:26:49.753,-0.9595,-0.0518,0.0679
02:26:49.768,-0.8862,-0.2793,0.0713
02:26:49.781,-0.9185,-0.3735,-0.0317
02:26:49.792,-0.8882,-0.2847,-0.0747
02:26:49.803,-0.8936,-0.2207,-0.0415
02:26:49.815,-0.8306,-0.1035,0.0156
02:26:49.826,-0.8311,-0.0215,0.0420
02:26:49.837,-0.8145,0.0229,0.0723
02:26:49.849,-0.8076,0.0269,0.0239
02:26:49.863,-0.8047,0.1016,-0.0195
02:26:49.874,-0.8569,0.2007,-0.0386
02:26:49.889,-0.9194,0.2788,-0.1011
02:26:49.902,-1.0210,0.4116,-0.1299
02:26:49.913,-1.1201,0.5713,-0.2603
02:26:49.925,-1.1367,0.7026,-0.2690
02:26:49.936,-1.1470,0.8491,-0.2744
02:26:49.947,-1.1392,0.9565,-0.2563
02:26:49.960,-1.1118,0.8945,-0.1968
02:26:49.972,-1.0698,0.6812,-0.0811
02:26:49.984,-1.0391,0.4951,-0.0146
02:26:49.996,-1.0317,0.3442,-0.0332
02:26:50.008,-1.0117,0.2065,-0.0703
02:26:50.019,-1.0254,0.1260,-0.0293
02:26:50.031,-1.0059,0.0479,0.0391
02:26:50.042,-1.0273,0.0225,0.0166
02:26:50.057,-1.0195,-0.0005,0.0015
02:26:50.068,-1.0645,0.0425,-0.0425
02:26:50.079,-1.0254,0.1167,-0.0254
02:26:50.090,-0.9878,0.1519,-0.0767
02:26:50.102,-0.9663,0.1274,-0.0742
02:26:50.115,-0.9409,0.0786,-0.0508
02:26:50.127,-0.9336,0.0420,-0.0171
02:26:50.139,-0.8862,-0.0112,0.0098
02:26:50.152,-0.8037,-0.0703,0.0918
02:26:50.165,-0.7983,-0.0747,0.1089
02:26:50.180,-0.7822,-0.0391,0.1035
02:26:50.192,-0.7949,0.0073,0.0894
02:26:50.206,-0.8203,0.0005,0.0708
02:26:50.218,-0.8311,-0.0093,0.0850
02:26:50.230,-0.8481,-0.0415,0.0889
02:26:50.243,-0.8984,-0.0762,0.0781
02:26:50.255,-0.9795,-0.0928,0.0103
02:26:50.267,-1.0410,-0.1260,0.0063
02:26:50.280,-1.0620,-0.1333,-0.0308
02:26:50.292,-1.1675,-0.0400,-0.0723
02:26:50.305,-1.1934,0.0625,-0.1240
02:26:50.322,-1.1387,0.1035,-0.1084
02:26:50.335,-1.1021,0.0674,-0.0571
02:26:50.347,-1.0410,0.0371,-0.0332
02:26:50.359,-1.0127,0.0015,-0.0161
02:26:50.372,-0.9995,-0.0439,-0.0044
02:26:50.384,-0.9707,-0.0718,-0.0239
02:26:50.396,-0.9722,-0.1221,-0.0425
02:26:50.408,-0.9175,-0.1665,-0.0508
02:26:50.422,-0.8823,-0.1865,-0.0889
02:26:50.433,-0.8882,-0.1816,-0.0864
02:26:50.446,-0.9121,-0.1377,-0.0752
02:26:50.461,-0.9204,-0.1113,-0.0098
02:26:50.472,-1.0137,-0.0786,-0.0425
02:26:50.485,-0.9937,-0.0884,-0.0244
02:26:50.497,-0.9883,-0.0742,-0.0356
02:26:50.508,-1.0005,-0.0537,-0.0361
02:26:50.519,-1.0142,-0.0425,-0.0459
02:26:50.532,-1.0156,-0.0493,-0.0303
02:26:50.544,-1.0420,-0.1147,-0.0806
02:26:50.557,-1.0498,-0.1641,-0.0942
02:26:50.570,-1.0444,-0.1499,-0.0527
02:26:50.581,-1.0557,-0.1553,-0.0532
02:26:50.593,-0.9819,-0.1265,0.0093
02:26:50.604,-0.9155,-0.1138,0.0620
02:26:50.615,-0.9604,-0.0713,0.0195
02:26:50.626,-0.9536,-0.0508,-0.0044
02:26:50.637,-0.9858,-0.0527,-0.0449
02:26:50.648,-0.9263,0.0034,-0.0464
02:26:50.661,-0.9902,0.0654,-0.0425
02:26:50.673,-0.9751,0.2021,-0.1528
02:26:50.684,-1.0796,0.1528,-0.2246
02:26:50.696,-1.0229,-0.0464,-0.0947
02:26:50.707,-1.0244,-0.2646,0.0059
02:26:50.722,-1.0679,-0.4673,0.0527
02:26:50.734,-1.0962,-0.4756,-0.0493
02:26:50.745,-1.1509,-0.4487,-0.1440
02:26:50.756,-1.2300,-0.3296,-0.2202
02:26:50.768,-1.1592,-0.2085,-0.1592
02:26:50.781,-1.0420,-0.1040,-0.0791
02:26:50.793,-0.9854,-0.0874,-0.0381
02:26:50.806,-0.9033,-0.1211,0.0151
02:26:50.818,-0.8691,-0.1758,0.0444
02:26:50.830,-0.8462,-0.2637,0.0874
02:26:50.842,-0.8525,-0.3618,0.0923
02:26:50.853,-0.8232,-0.4033,0.1533
02:26:50.865,-0.7583,-0.4048,0.1904
02:26:50.876,-0.7021,-0.3555,0.1714
02:26:50.890,-0.5952,-0.2344,0.2070
02:26:50.906,-0.5454,-0.2012,0.1631
02:26:50.918,-0.5713,-0.2026,0.1313
02:26:50.929,-0.5020,-0.1074,0.2119
02:26:50.942,-0.6523,-0.2158,0.1128
02:26:50.956,-0.7495,-0.3140,0.1226
02:26:50.968,-0.9194,-0.4238,0.0884
02:26:50.979,-1.0493,-0.4521,0.0073
02:26:50.990,-1.1235,-0.4961,-0.1519
02:26:51.001,-1.1523,-0.5938,-0.2471
02:26:51.015,-1.1440,-0.6631,-0.2192
02:26:51.026,-1.1191,-0.7051,-0.1729
02:26:51.037,-1.0625,-0.7051,-0.1016
02:26:51.048,-0.9922,-0.6714,-0.0205
02:26:51.059,-0.9507,-0.6113,0.0435
02:26:51.071,-0.9351,-0.5151,0.0830
02:26:51.082,-0.9233,-0.4395,0.0801
02:26:51.095,-0.8867,-0.4058,0.0205
02:26:51.108,-0.8403,-0.4185,0.0190
02:26:51.120,-0.8423,-0.4370,0.0249
02:26:51.131,-0.8315,-0.4375,0.0220
02:26:51.144,-0.8071,-0.4619,0.0449
02:26:51.156,-0.8608,-0.4810,0.0288
02:26:51.167,-0.9668,-0.4692,-0.0405
02:26:51.178,-0.9038,-0.4536,0.0029
02:26:51.191,-0.8779,-0.4648,-0.0029
02:26:51.204,-0.8584,-0.4966,-0.0269
02:26:51.218,-0.8213,-0.4751,0.0000
02:26:51.231,-0.9106,-0.4624,-0.0483
02:26:51.244,-0.8857,-0.4341,-0.0303
02:26:51.256,-0.8911,-0.4365,-0.0518
02:26:51.272,-0.8999,-0.4253,-0.0200
02:26:51.284,-0.8926,-0.4678,0.0146
02:26:51.296,-0.8906,-0.4341,-0.0181
02:26:51.307,-0.8994,-0.4478,0.0098
02:26:51.320,-0.8794,-0.4131,0.0015
02:26:51.335,-0.8862,-0.4263,-0.0366
02:26:51.346,-0.9180,-0.4434,-0.0718
02:26:51.358,-0.9009,-0.4243,-0.0259
02:26:51.369,-0.8843,-0.4331,-0.0317
02:26:51.380,-0.8584,-0.4272,-0.0425
02:26:51.394,-0.8574,-0.4009,-0.0171
02:26:51.406,-0.8955,-0.3711,-0.0430
02:26:51.418,-0.9150,-0.3511,-0.0835
02:26:51.430,-0.9180,-0.4097,-0.0225
02:26:51.444,-0.9121,-0.4370,0.0146
02:26:51.456,-0.9312,-0.4355,-0.0049
02:26:51.471,-0.9067,-0.4189,-0.0083
02:26:51.484,-0.8403,-0.3936,0.0234
02:26:51.497,-0.7412,-0.3311,0.1709
02:26:51.511,-0.9038,-0.3965,0.0098
02:26:51.523,-0.9248,-0.4575,-0.0557
02:26:51.535,-0.9033,-0.6392,-0.0840
02:26:51.548,-0.9458,-0.5693,-0.1543
02:26:51.561,-0.9780,-0.6133,-0.1685
02:26:51.575,-0.9995,-0.6494,-0.1597
02:26:51.587,-1.0366,-0.6313,-0.2290
02:26:51.600,-0.9756,-0.6323,-0.1729
02:26:51.611,-0.8662,-0.6670,-0.0767
02:26:51.623,-0.8350,-0.6670,-0.0845
02:26:51.636,-0.7490,-0.6812,-0.0747
02:26:51.648,-0.6895,-0.6616,-0.0449
02:26:51.661,-0.5981,-0.6875,-0.0264
02:26:51.673,-0.5508,-0.6973,-0.0312
02:26:51.686,-0.5005,-0.6616,-0.0039
02:26:51.699,-0.5073,-0.6392,0.0063
02:26:51.710,-0.5244,-0.4946,-0.0596
02:26:51.721,-0.5142,-0.5942,-0.0156
02:26:51.732,-0.5586,-0.5996,-0.0015
02:26:51.743,-0.6035,-0.6582,0.0215
02:26:51.759,-0.6294,-0.6348,0.1479
02:26:51.772,-0.7236,-0.6128,0.2002
02:26:51.786,-0.7534,-0.5610,0.2427
02:26:51.797,-0.7773,-0.4990,0.2402
02:26:51.810,-0.8291,-0.4878,0.2202
02:26:51.825,-0.8486,-0.4644,0.1421
02:26:51.838,-0.8882,-0.5088,0.0811
02:26:51.851,-0.8862,-0.5601,-0.0054
02:26:51.864,-0.7954,-0.5532,-0.0444
02:26:51.878,-0.8716,-0.5889,-0.1479
02:26:51.892,-0.8354,-0.5986,-0.1328
02:26:51.905,-0.8306,-0.6211,-0.0933
02:26:51.920,-0.8501,-0.6328,-0.0591
02:26:51.932,-0.8706,-0.6069,-0.0205
02:26:51.943,-0.8799,-0.6055,0.0044
02:26:51.954,-0.9292,-0.6191,0.0356
02:26:51.966,-0.9067,-0.4985,0.0439
02:26:51.977,-0.9209,-0.5220,-0.0317
02:26:51.988,-0.8242,-0.5317,-0.0132
02:26:52.001,-0.8364,-0.5469,-0.0386
02:26:52.016,-0.8379,-0.5317,-0.0776
02:26:52.027,-0.8262,-0.5244,-0.0654
02:26:52.038,-0.8433,-0.5298,-0.1211
02:26:52.049,-0.8589,-0.5645,-0.1304
02:26:52.062,-0.8325,-0.5669,-0.1016
02:26:52.074,-0.8179,-0.5513,-0.0679
02:26:52.086,-0.8115,-0.5630,-0.0464
02:26:52.097,-0.7979,-0.5474,-0.0518
02:26:52.110,-0.8130,-0.5376,-0.0327
02:26:52.122,-0.8115,-0.5010,-0.0469
02:26:52.136,-0.8145,-0.4688,-0.0435
02:26:52.148,-0.8125,-0.4849,-0.0459
02:26:52.161,-0.8198,-0.5229,-0.0791
02:26:52.174,-0.8154,-0.5703,-0.0957
02:26:52.186,-0.8159,-0.6006,-0.1084
02:26:52.199,-0.8198,-0.6392,-0.1118
02:26:52.214,-0.8228,-0.5898,-0.0908
02:26:52.226,-0.8418,-0.6104,-0.0688
02:26:52.237,-0.8442,-0.6118,-0.0654
02:26:52.248,-0.8521,-0.6245,-0.0811
02:26:52.260,-0.8188,-0.6147,-0.0312
02:26:52.271,-0.8311,-0.6597,-0.0547
02:26:52.282,-0.8550,-0.6792,-0.0415
02:26:52.293,-0.8374,-0.7119,-0.0474
02:26:52.305,-0.8467,-0.7480,-0.0532
02:26:52.316,-0.8501,-0.7549,-0.0098
02:26:52.330,-0.8750,-0.7446,0.0703
02:26:52.341,-0.9297,-0.6650,0.0913
02:26:52.353,-0.9609,-0.5825,0.0425
02:26:52.364,-0.9541,-0.4985,-0.0234
02:26:52.376,-0.9004,-0.4146,-0.0088
02:26:52.388,-0.8853,-0.2949,-0.0752
02:26:52.400,-0.8511,-0.1885,-0.0312
02:26:52.413,-0.8467,-0.1572,-0.0566
02:26:52.429,-0.8521,-0.1875,-0.1299
02:26:52.440,-0.8071,-0.2061,-0.1455
02:26:52.453,-0.8076,-0.2686,-0.1177
02:26:52.465,-0.8159,-0.2705,-0.0854
02:26:52.477,-0.8359,-0.3027,-0.0645
02:26:52.491,-0.8706,-0.3164,0.0166
02:26:52.504,-0.8203,-0.3315,0.0747
02:26:52.518,-0.8125,-0.3633,0.1367
02:26:52.529,-0.8032,-0.4087,0.2271
02:26:52.541,-0.7632,-0.5000,0.2500
02:26:52.553,-0.8110,-0.5195,0.2256
02:26:52.565,-0.8521,-0.5210,0.1802
02:26:52.576,-0.8740,-0.5405,0.1714
02:26:52.589,-0.9321,-0.6025,0.1343
02:26:52.600,-0.9316,-0.6543,0.1401
02:26:52.611,-0.9365,-0.6450,0.1426
02:26:52.622,-0.9146,-0.6060,0.1216
02:26:52.634,-0.9536,-0.6460,0.0308
02:26:52.646,-0.9224,-0.6138,0.0049
02:26:52.658,-0.9258,-0.6401,-0.0796
02:26:52.670,-0.8320,-0.6265,-0.0435
02:26:52.681,-0.7710,-0.6050,-0.0317
02:26:52.692,-0.7080,-0.5640,-0.0015
02:26:52.704,-0.6919,-0.5259,-0.0220
02:26:52.715,-0.6758,-0.4863,-0.0308
02:26:52.726,-0.6855,-0.4727,-0.0474
02:26:52.737,-0.7256,-0.5083,-0.0835
02:26:52.748,-0.7715,-0.5225,-0.0620
02:26:52.762,-0.9009,-0.5044,-0.0684
02:26:52.774,-0.9253,-0.4937,-0.0840
02:26:52.785,-0.9004,-0.4902,-0.1177
02:26:52.796,-0.9272,-0.5229,-0.2188
02:26:52.807,-0.8784,-0.5562,-0.1880
02:26:52.818,-0.9062,-0.5732,-0.1914
02:26:52.829,-0.8691,-0.5786,-0.1514
02:26:52.841,-0.8184,-0.5430,-0.0986
02:26:52.854,-0.8330,-0.5273,-0.0962
02:26:52.866,-0.8232,-0.5161,-0.0698
02:26:52.878,-0.8071,-0.5156,-0.0479
02:26:52.889,-0.8315,-0.5093,-0.0547
02:26:52.900,-0.8833,-0.5039,-0.0610
02:26:52.911,-0.8911,-0.5024,-0.0278
02:26:52.923,-0.8926,-0.4810,-0.0054
02:26:52.935,-0.9014,-0.4722,-0.0039
02:26:52.948,-0.8970,-0.5137,0.0337
02:26:52.962,-0.9043,-0.5000,-0.0122
02:26:52.973,-0.8970,-0.4897,-0.0225
02:26:52.987,-0.9175,-0.4736,-0.0664
02:26:53.000,-0.8838,-0.4731,-0.0747
02:26:53.014,-0.8604,-0.4321,-0.0874
02:26:53.025,-0.8501,-0.4399,-0.0703
02:26:53.037,-0.8320,-0.4185,-0.0601
02:26:53.048,-0.8457,-0.4019,-0.0518
02:26:53.059,-0.8887,-0.4238,-0.0625
02:26:53.072,-0.8838,-0.4473,-0.0747
02:26:53.083,-0.8662,-0.4922,-0.0469
02:26:53.095,-0.9170,-0.4697,-0.0693
02:26:53.109,-0.9141,-0.4082,-0.0474
02:26:53.121,-0.9209,-0.3711,-0.0723
02:26:53.132,-0.9385,-0.4048,-0.0327
02:26:53.146,-0.8975,-0.4868,0.0186
02:26:53.157,-0.8994,-0.5142,0.0234
02:26:53.173,-0.9028,-0.4556,0.0811
02:26:53.184,-0.9438,-0.3730,-0.0347
02:26:53.196,-0.9507,-0.3608,-0.0762
02:26:53.207,-0.9683,-0.3940,-0.1670
02:26:53.218,-0.9370,-0.4473,-0.1470
02:26:53.229,-0.8989,-0.4204,-0.0693
02:26:53.245,-0.8496,-0.4624,-0.0542
02:26:53.256,-0.8394,-0.4932,-0.0400
02:26:53.267,-0.8384,-0.5093,-0.0337
02:26:53.279,-0.8105,-0.5229,-0.0068
02:26:53.290,-0.8149,-0.5615,-0.0273
02:26:53.301,-0.8076,-0.5630,-0.0288
02:26:53.314,-0.8135,-0.5532,-0.0400
02:26:53.325,-0.8618,-0.4224,-0.0288
02:26:53.337,-0.8750,-0.4307,-0.0361
02:26:53.348,-0.8604,-0.4209,-0.0327
02:26:53.359,-0.8936,-0.4873,-0.0801
02:26:53.374,-0.9087,-0.5669,-0.0752
02:26:53.387,-0.9155,-0.6436,-0.0137
02:26:53.398,-0.8613,-0.7417,0.0576
02:26:53.412,-0.8130,-0.6934,0.1523
02:26:53.425,-0.7979,-0.5420,0.2012
02:26:53.437,-0.7354,-0.4897,0.0884
02:26:53.451,-0.6147,-0.6411,-0.0693
02:26:53.463,-0.7271,-0.6538,-0.0703
02:26:53.476,-0.8013,-0.6694,-0.0762
02:26:53.492,-0.7915,-0.6973,-0.0664
02:26:53.505,-0.7739,-0.6982,-0.0469
02:26:53.517,-0.7583,-0.6748,-0.0190
02:26:53.529,-0.7241,-0.6475,0.0332
02:26:53.540,-0.7153,-0.6206,0.0776
02:26:53.551,-0.7402,-0.6484,0.1040
02:26:53.563,-0.7554,-0.6719,0.1177
02:26:53.574,-0.7549,-0.7231,0.1235
02:26:53.588,-0.8218,-0.7397,0.0083
02:26:53.600,-0.7749,-0.7627,0.0132
02:26:53.613,-0.7910,-0.7144,0.0195
02:26:53.627,-0.7886,-0.6318,0.0127
02:26:53.640,-0.7251,-0.5415,0.0098
02:26:53.652,-0.6890,-0.3965,-0.0034
02:26:53.666,-0.6196,-0.3984,0.0234
02:26:53.678,-0.7148,-0.1294,-0.1782
02:26:53.689,-0.5957,0.0620,-0.1787
02:26:53.702,-0.6875,0.0117,-0.2256
02:26:53.713,-0.8291,-0.0190,-0.3975
02:26:53.729,-0.8579,-0.3442,-0.4434
02:26:53.741,-0.9565,-0.4077,-0.4009
02:26:53.752,-1.0049,-0.3989,-0.3452
02:26:53.763,-1.0303,-0.3828,-0.2559
02:26:53.775,-1.0542,-0.3677,-0.1562
02:26:53.786,-1.1226,-0.3408,-0.0830
02:26:53.798,-1.1348,-0.3247,0.0054
02:26:53.810,-1.1353,-0.3091,0.0962
02:26:53.821,-1.0859,-0.3164,0.1362
02:26:53.833,-1.0630,-0.3535,0.1318
02:26:53.844,-0.9956,-0.3530,0.1133
02:26:53.855,-0.9375,-0.3013,0.0835
02:26:53.866,-0.8940,-0.2705,0.0352
02:26:53.877,-0.8354,-0.2925,0.0093
02:26:53.888,-0.8481,-0.3350,-0.0054
02:26:53.900,-0.8198,-0.3965,0.0186
02:26:53.913,-0.7861,-0.4644,0.0444
02:26:53.924,-0.7969,-0.5269,0.0728
02:26:53.939,-0.8501,-0.5552,0.0112
02:26:53.950,-0.8364,-0.5264,0.0513
02:26:53.962,-0.8745,-0.5298,0.0381
02:26:53.973,-0.8877,-0.5063,0.0537
02:26:53.986,-0.9189,-0.4897,0.0308
02:26:53.998,-0.9199,-0.4692,0.0083
02:26:54.009,-0.9189,-0.4321,0.0078
02:26:54.022,-0.9448,-0.3638,-0.0054
02:26:54.033,-0.9814,-0.3262,-0.0293
02:26:54.045,-0.9966,-0.2964,-0.0337
02:26:54.056,-1.0527,-0.2793,-0.0830
02:26:54.070,-0.9805,-0.2754,-0.0342
02:26:54.081,-0.9365,-0.2720,-0.0547
02:26:54.100,-0.9316,-0.2817,-0.0708
02:26:54.114,-0.9355,-0.2827,-0.0952
02:26:54.125,-0.9502,-0.3032,-0.1265
02:26:54.136,-0.9019,-0.3301,-0.1064
02:26:54.148,-0.8823,-0.3164,-0.0835
02:26:54.159,-0.8882,-0.3564,-0.0605
02:26:54.170,-0.8994,-0.4043,-0.0259
02:26:54.181,-0.9116,-0.4141,-0.0103
02:26:54.197,-0.9194,-0.4077,-0.0391
02:26:54.208,-0.9102,-0.4077,-0.0430
02:26:54.220,-0.9321,-0.4175,-0.0874
02:26:54.231,-0.9038,-0.4243,-0.0645
02:26:54.246,-0.8960,-0.4346,-0.0747
02:26:54.258,-0.8975,-0.4463,-0.0771
02:26:54.269,-0.9141,-0.4473,-0.0889
02:26:54.280,-0.9116,-0.4478,-0.0747
02:26:54.291,-0.8984,-0.4380,-0.0571
02:26:54.304,-0.9209,-0.3970,-0.1196
02:26:54.315,-0.8691,-0.3774,-0.0659
02:26:54.327,-0.9546,-0.3447,-0.1104
02:26:54.340,-0.9204,-0.3301,-0.0361
02:26:54.354,-0.9160,-0.2969,-0.0449
02:26:54.365,-0.9448,-0.2622,-0.0752
02:26:54.377,-0.9478,-0.2207,-0.0654
02:26:54.388,-0.9785,-0.2158,-0.0366
02:26:54.401,-0.9956,-0.2285,-0.0273
02:26:54.413,-0.9819,-0.2705,-0.0742
02:26:54.424,-0.8931,-0.2896,-0.0503
02:26:54.436,-0.7935,-0.4922,0.0977
02:26:54.449,-0.9326,-0.6543,-0.1123
02:26:54.460,-0.9263,-0.6851,-0.1128
02:26:54.473,-0.9321,-0.5811,-0.1250
02:26:54.484,-0.9858,-0.5171,-0.1338
02:26:54.498,-0.9517,-0.4380,-0.0811
02:26:54.512,-1.0122,-0.3848,-0.1382
02:26:54.524,-0.9473,-0.4272,-0.0713
02:26:54.537,-0.9229,-0.4683,-0.0356
02:26:54.548,-0.9336,-0.5073,-0.0103
02:26:54.561,-0.9473,-0.4614,-0.0161
02:26:54.573,-0.9282,-0.4272,0.0244
02:26:54.585,-0.8979,-0.3281,0.0195
02:26:54.596,-0.8413,-0.3662,0.0308
02:26:54.607,-0.7808,-0.3809,0.0518
02:26:54.619,-0.7339,-0.3828,0.0962
02:26:54.630,-0.6807,-0.4414,0.1489
02:26:54.645,-0.6592,-0.4956,0.1440
02:26:54.656,-0.6553,-0.5415,0.1094
02:26:54.668,-0.6602,-0.5171,0.0762
02:26:54.680,-0.6064,-0.5830,0.1118
02:26:54.692,-0.6548,-0.6118,0.0352
02:26:54.705,-0.6460,-0.6567,0.0024
02:26:54.716,-0.6030,-0.7124,0.0308
02:26:54.728,-0.6821,-0.6284,-0.0117
02:26:54.739,-0.7139,-0.5957,0.0122
02:26:54.750,-0.7656,-0.6313,-0.1387
02:26:54.762,-0.9399,-0.7769,-0.0713
02:26:54.773,-0.9893,-0.6680,-0.0503
02:26:54.786,-1.0688,-0.6279,-0.1250
02:26:54.797,-0.9961,-0.5513,-0.1284
02:26:54.808,-0.8506,-0.5054,-0.0713
02:26:54.821,-0.8159,-0.5122,-0.0767
02:26:54.832,-0.7490,-0.5010,-0.0205
02:26:54.843,-0.7461,-0.5103,-0.0225
02:26:54.857,-0.8066,-0.5308,-0.0044
02:26:54.868,-0.9126,-0.5381,0.0054
02:26:54.882,-0.9556,-0.6050,0.0479
02:26:54.893,-0.9438,-0.6172,0.0361
02:26:54.909,-0.9023,-0.6797,0.0342
02:26:54.920,-0.7920,-0.6870,0.0122
02:26:54.931,-0.7759,-0.6812,-0.0244
02:26:54.942,-0.7471,-0.6558,-0.0068
02:26:54.954,-0.7319,-0.6860,-0.0459
02:26:54.965,-0.7119,-0.6587,-0.0386
02:26:54.977,-0.7480,-0.6216,-0.0615
02:26:54.990,-0.7471,-0.5732,-0.0454
02:26:55.001,-0.7725,-0.5723,-0.0176
02:26:55.012,-0.7900,-0.5571,-0.0063
02:26:55.024,-0.7905,-0.5645,-0.0225
02:26:55.036,-0.8032,-0.5527,-0.0464
02:26:55.050,-0.8198,-0.5596,-0.0376
02:26:55.064,-0.8164,-0.5767,-0.0669
02:26:55.076,-0.8115,-0.5840,-0.0264
02:26:55.089,-0.9009,-0.5869,-0.0840
02:26:55.101,-0.8535,-0.5933,-0.0708
02:26:55.112,-0.8359,-0.6094,-0.0630
02:26:55.128,-0.8037,-0.6094,-0.0728
02:26:55.141,-0.8125,-0.5918,-0.1011
02:26:55.153,-0.8359,-0.5415,-0.0659
02:26:55.166,-0.8291,-0.5498,-0.0776
02:26:55.179,-0.8281,-0.4556,-0.0337
02:26:55.195,-0.8867,-0.4341,-0.0063
02:26:55.206,-0.9424,-0.5796,0.1016
02:26:55.218,-0.9648,-0.6714,0.2051
02:26:55.229,-0.9033,-0.7144,0.2334
02:26:55.242,-0.9390,-0.7104,0.1587
02:26:55.254,-0.9268,-0.7759,0.1777
02:26:55.268,-0.9502,-0.7554,0.0991
02:26:55.282,-0.8379,-0.7588,0.0630
02:26:55.294,-0.7603,-0.7158,0.0444
02:26:55.310,-0.6655,-0.6562,0.0269
02:26:55.324,-0.6509,-0.6226,0.0073
02:26:55.338,-0.6870,-0.5679,-0.0474
02:26:55.350,-0.6387,-0.5801,-0.0347
02:26:55.363,-0.6572,-0.5161,-0.0859
02:26:55.376,-0.6553,-0.5415,-0.0518
02:26:55.389,-0.6777,-0.5786,-0.0273
02:26:55.402,-0.7056,-0.5693,-0.0576
02:26:55.414,-0.7148,-0.6382,-0.0259
02:26:55.427,-0.6807,-0.7026,-0.0059
02:26:55.441,-0.7046,-0.5830,-0.0376
02:26:55.454,-0.6440,-0.4316,-0.0361
02:26:55.468,-0.5923,-0.1328,0.0088
02:26:55.480,-0.5981,-0.0596,-0.0576
02:26:55.493,-0.6768,-0.3330,-0.1489
02:26:55.506,-0.7969,-0.5137,-0.1035
02:26:55.518,-0.9429,-0.6416,-0.1240
02:26:55.531,-1.1289,-0.6138,-0.2114
02:26:55.544,-1.1899,-0.5049,-0.2041
02:26:55.557,-1.2554,-0.2329,-0.1953
02:26:55.569,-1.2920,-0.0439,-0.2080
02:26:55.582,-1.2612,-0.0737,-0.1426
02:26:55.597,-1.2104,-0.0928,-0.1196
02:26:55.608,-1.0767,-0.1860,-0.0776
02:26:55.621,-0.9980,-0.2773,-0.0703
02:26:55.633,-0.9194,-0.3311,-0.0645
02:26:55.647,-0.8696,-0.4009,-0.0532
02:26:55.659,-0.8354,-0.3936,-0.0259
02:26:55.671,-0.8252,-0.3457,0.0391
02:26:55.684,-0.8130,-0.2227,0.0835
02:26:55.696,-0.8223,-0.2446,0.0698
02:26:55.709,-0.7568,-0.2964,0.0981
02:26:55.721,-0.8159,-0.3550,0.0005
02:26:55.737,-0.7881,-0.4507,-0.0854
02:26:55.748,-0.8418,-0.4912,-0.1182
02:26:55.760,-0.8794,-0.5605,-0.1299
02:26:55.771,-0.9253,-0.6118,-0.1460
02:26:55.782,-0.9556,-0.6440,-0.1235
02:26:55.794,-0.9907,-0.6562,-0.0996
02:26:55.806,-1.0020,-0.6499,-0.0708
02:26:55.819,-0.9526,-0.6450,-0.0605
02:26:55.830,-0.9277,-0.6128,-0.0640
02:26:55.844,-0.8916,-0.5854,-0.0176
02:26:55.856,-0.8477,-0.5371,-0.0347
02:26:55.867,-0.7993,-0.4795,-0.0405
02:26:55.879,-0.7891,-0.4751,-0.0337
02:26:55.893,-0.7393,-0.4492,0.0288
02:26:55.906,-0.8062,-0.3916,-0.0273
02:26:55.923,-0.8267,-0.4229,-0.0234
02:26:55.934,-0.8691,-0.4170,-0.0396
02:26:55.947,-0.9106,-0.4224,-0.0454
02:26:55.962,-0.9531,-0.4297,-0.0493
02:26:55.977,-0.9663,-0.4189,-0.0630
02:26:55.989,-0.9917,-0.4023,-0.0649
02:26:56.003,-1.0000,-0.3999,-0.1064
02:26:56.015,-0.8599,-0.3135,-0.2026
02:26:56.033,-0.7671,-0.0327,-0.1045
02:26:56.045,-0.7764,0.4082,-0.2471
02:26:56.056,-0.9766,-0.1489,0.0269
02:26:56.068,-1.0303,-0.3501,0.1270
02:26:56.081,-1.1138,-0.4072,0.1895
02:26:56.092,-1.0889,-0.7349,0.2393
02:26:56.106,-1.0283,-0.5664,0.2817
02:26:56.117,-0.9692,-0.7866,0.0903
02:26:56.128,-0.7822,-0.6421,0.0791
02:26:56.139,-0.6772,-0.6436,-0.0024
02:26:56.154,-0.6152,-0.4917,-0.0273
02:26:56.166,-0.5728,-0.4526,0.0078
02:26:56.178,-0.7734,-0.3760,0.0518
02:26:56.190,-0.9321,-0.4487,0.0273
02:26:56.202,-1.0195,-0.5933,0.0449
02:26:56.216,-1.1567,-0.5649,-0.0254
02:26:56.227,-1.1836,-0.5498,-0.0264
02:26:56.241,-1.1934,-0.5679,-0.0186
02:26:56.253,-1.0215,-0.3867,0.0991
02:26:56.264,-0.9248,-0.2749,0.0811
02:26:56.275,-0.7954,-0.1899,0.0703
02:26:56.290,-0.7358,-0.1626,0.0625
02:26:56.301,-0.7349,-0.2700,0.0400
02:26:56.312,-0.7603,-0.4238,-0.0220
02:26:56.324,-0.7842,-0.5693,-0.0352
02:26:56.336,-0.7671,-0.6577,-0.0562
02:26:56.347,-0.7827,-0.7212,-0.1226
02:26:56.359,-0.7725,-0.7163,-0.1982
02:26:56.372,-0.7803,-0.7031,-0.2266
02:26:56.383,-0.7153,-0.7070,-0.1860
02:26:56.394,-0.7124,-0.7266,-0.1777
02:26:56.407,-0.6294,-0.7671,-0.1436
02:26:56.418,-0.6562,-0.7607,-0.0708
02:26:56.432,-0.7070,-0.6987,0.0356
02:26:56.445,-0.7466,-0.5957,-0.0093
02:26:56.456,-0.7446,-0.5151,0.0044
02:26:56.468,-0.7842,-0.4839,0.0054
02:26:56.479,-0.8374,-0.4648,0.0337
02:26:56.493,-0.9424,-0.3892,-0.1577
02:26:56.505,-1.0073,-0.4282,0.0127
02:26:56.516,-1.0356,-0.4600,-0.0684
02:26:56.527,-0.9473,-0.4722,-0.0044
02:26:56.539,-0.9321,-0.5112,-0.0146
02:26:56.550,-0.8936,-0.5020,0.0049
02:26:56.562,-0.9204,-0.4438,-0.0186
02:26:56.575,-0.9033,-0.4111,-0.0259
02:26:56.587,-0.8813,-0.3887,-0.0288
02:26:56.598,-0.8843,-0.3965,-0.1245
02:26:56.610,-0.8296,-0.4478,-0.1206
02:26:56.623,-0.8403,-0.4219,-0.0811
02:26:56.634,-0.8823,-0.3784,-0.0625
02:26:56.649,-0.9375,-0.3911,-0.0508
02:26:56.664,-0.9917,-0.4155,-0.0923
02:26:56.676,-1.0205,-0.4526,-0.0557
02:26:56.687,-1.0952,-0.5962,-0.0566
02:26:56.699,-1.1836,-0.6333,-0.0269
02:26:56.710,-1.3008,-0.5215,-0.0420
02:26:56.722,-1.3765,-0.4165,-0.0132
02:26:56.736,-1.3916,-0.3638,-0.0454
02:26:56.747,-1.3594,-0.4355,-0.0312
02:26:56.761,-1.3545,-0.4883,-0.0269
02:26:56.773,-1.3267,-0.5347,0.0132
02:26:56.784,-1.2378,-0.5474,0.0889
02:26:56.799,-1.3174,-0.5547,0.0781
02:26:56.811,-1.3594,-0.5410,0.0649
02:26:56.822,-1.3682,-0.5391,0.0386
02:26:56.833,-1.3638,-0.5674,-0.0073
02:26:56.844,-1.3633,-0.5981,0.0107
02:26:56.859,-1.2920,-0.5493,0.0483
02:26:56.871,-1.2788,-0.5410,-0.0225
02:26:56.884,-1.2754,-0.5503,-0.0312
02:26:56.901,-1.2661,-0.6201,-0.0889
02:26:56.913,-1.1914,-0.6240,-0.1240
02:26:56.925,-1.1348,-0.5923,-0.1987
02:26:56.936,-1.0947,-0.5786,-0.2598
02:26:56.948,-1.0649,-0.5674,-0.2686
02:26:56.961,-1.1240,-0.5679,-0.3916
02:26:56.972,-1.0098,-0.5986,-0.3789
02:26:56.984,-0.9287,-0.5664,-0.3774
02:26:56.996,-0.9658,-0.5703,-0.4775
02:26:57.007,-0.8594,-0.5835,-0.4707
02:26:57.022,-0.7710,-0.6001,-0.4526
02:26:57.033,-0.7529,-0.5928,-0.4927
02:26:57.049,-0.6953,-0.6104,-0.4858
02:26:57.061,-0.6841,-0.6079,-0.5327
02:26:57.075,-0.6528,-0.6157,-0.5464
02:26:57.088,-0.5928,-0.6250,-0.5435
02:26:57.099,-0.5449,-0.6250,-0.5317
02:26:57.111,-0.4761,-0.6113,-0.5273
02:26:57.125,-0.3916,-0.5620,-0.5215
02:26:57.136,-0.3042,-0.4790,-0.5366
02:26:57.149,-0.2124,-0.4575,-0.5088
02:26:57.161,-0.1665,-0.4678,-0.5039
02:26:57.174,-0.1221,-0.4492,-0.5049
02:26:57.188,-0.0552,-0.4688,-0.5645
02:26:57.200,0.0732,-0.4009,-0.5649
02:26:57.215,0.2417,-0.2920,-0.6255
02:26:57.229,0.3550,-0.3452,-0.5947
02:26:57.240,0.4170,-0.3008,-0.5991
02:26:57.257,0.3989,-0.3521,-0.5962
02:26:57.269,0.3877,-0.3462,-0.6133
02:26:57.282,0.3740,-0.3877,-0.6416
02:26:57.295,0.4282,-0.4224,-0.6392
02:26:57.307,0.4077,-0.4370,-0.6860
02:26:57.321,0.4385,-0.4502,-0.6890
02:26:57.335,0.4199,-0.3901,-0.7124
02:26:57.348,0.4263,-0.3408,-0.7471
02:26:57.362,0.3838,-0.2500,-0.8535
02:26:57.373,0.4102,-0.1543,-0.8359
02:26:57.384,0.4180,-0.1748,-0.7646
02:26:57.396,0.4502,-0.0889,-0.7222
02:26:57.407,0.4307,0.0161,-0.7124
02:26:57.422,0.4409,0.0981,-0.6855
02:26:57.433,0.4458,0.2207,-0.7070
02:26:57.445,0.3882,0.3525,-0.7642
02:26:57.456,0.3618,0.4399,-0.7754
02:26:57.469,0.2900,0.4585,-0.7686
02:26:57.482,0.2031,0.2412,-0.7705
02:26:57.493,0.1934,0.4585,-0.8027
02:26:57.506,0.1567,0.5854,-0.8442
02:26:57.517,0.1230,0.6318,-0.8521
02:26:57.528,0.0630,0.6143,-0.8203
02:26:57.540,0.0020,0.5000,-0.8105
02:26:57.551,0.0146,0.2959,-0.7285
02:26:57.563,0.0493,0.1196,-0.6602
02:26:57.574,0.0977,-0.0596,-0.6831
02:26:57.585,0.1392,-0.1797,-0.6943
02:26:57.597,0.1777,-0.2466,-0.6997
02:26:57.611,0.1660,-0.3179,-0.7363
02:26:57.622,0.1875,-0.4209,-0.7988
02:26:57.633,0.1851,-0.4131,-0.8672
02:26:57.645,0.1738,-0.4795,-0.9473
02:26:57.656,0.1821,-0.5254,-0.9976
02:26:57.668,0.1538,-0.5039,-1.0830
02:26:57.680,0.1069,-0.4702,-1.1177
02:26:57.693,0.0811,-0.3257,-1.1665
02:26:57.705,0.1470,-0.1660,-1.2549
02:26:57.717,0.1245,-0.0942,-1.2876
02:26:57.728,0.2031,-0.0312,-1.2544
02:26:57.741,0.0786,-0.0273,-1.2627
02:26:57.752,0.0146,-0.0493,-1.3306
02:26:57.764,-0.0864,-0.0537,-1.3828
02:26:57.779,-0.1631,0.0840,-1.3511
02:26:57.791,0.0127,0.0518,-1.1670
02:26:57.803,-0.0156,0.0972,-1.1226
02:26:57.815,-0.0571,0.1147,-1.0718
02:26:57.828,-0.0840,0.1431,-1.0649
02:26:57.840,-0.0435,0.1523,-1.0078
02:26:57.853,-0.0952,0.1675,-1.0146
02:26:57.865,-0.1650,0.1553,-1.0142
02:26:57.878,-0.2427,0.1357,-1.0703
02:26:57.889,-0.2822,0.1538,-1.1470
02:26:57.901,-0.1963,0.1738,-1.1274
02:26:57.913,-0.2251,0.2637,-1.2700
02:26:57.924,-0.2817,0.3462,-1.5176
02:26:57.936,-0.3218,0.3706,-1.7427
02:26:57.950,-0.3584,0.3091,-2.0117
02:26:57.962,-0.3013,0.2456,-2.1997
02:26:57.978,-0.1860,0.2017,-2.3794
02:26:57.990,-0.0474,0.0786,-2.5518
02:26:58.004,0.0645,-0.1948,-2.5659
02:26:58.016,0.1426,-0.3418,-2.5146
02:26:58.029,0.2002,-0.4404,-2.3018
02:26:58.041,0.2144,-0.4414,-1.9849
02:26:58.054,0.1958,-0.3770,-1.6455
02:26:58.066,0.2051,-0.3311,-1.3291
02:26:58.078,0.0830,-0.2573,-1.0439
02:26:58.089,-0.0010,-0.2178,-0.7598
02:26:58.100,-0.0273,-0.2310,-0.5005
02:26:58.111,-0.0864,-0.1611,-0.3472
02:26:58.124,-0.0420,-0.1548,-0.2051
02:26:58.136,0.0146,-0.0005,-0.1250
02:26:58.149,0.0645,0.0210,-0.0317
02:26:58.161,0.0542,0.0210,-0.0249
02:26:58.172,0.0503,0.0210,-0.0137
02:26:58.183,0.0342,0.0088,-0.0195
02:26:58.194,0.0464,0.0132,0.0103
02:26:58.205,0.0352,0.0171,0.0151
02:26:58.217,0.0376,0.0229,0.0215
02:26:58.231,0.0439,0.0288,0.0127
02:26:58.242,0.0464,0.0229,0.0156
02:26:58.253,0.0352,0.0132,0.0386
02:26:58.265,0.0400,0.0215,0.0146
02:26:58.276,0.0610,0.0303,0.0415
02:26:58.287,0.0522,0.0547,0.0342
02:26:58.298,0.0356,0.0312,0.0322
02:26:58.310,0.0093,0.0312,0.0337
02:26:58.324,-0.0068,0.0195,0.0210
02:26:58.338,0.0791,0.1191,-0.0171
02:26:58.349,0.1567,0.2163,0.0479
02:26:58.360,-0.0601,0.2700,-0.0757
02:26:58.378,-0.0454,0.2485,-0.4111
02:26:58.389,0.0093,0.3354,-0.4390
02:26:58.405,-0.0923,0.1924,-0.4971
02:26:58.416,-0.2539,-0.0376,-0.5366
02:26:58.427,-0.3545,0.1143,-0.6396
02:26:58.441,-0.3804,0.0737,-0.7124
02:26:58.455,-0.3662,0.0303,-0.7295
02:26:58.467,-0.2808,0.1055,-0.6436
02:26:58.480,-0.2344,0.2129,-0.7642
02:26:58.493,-0.2178,0.3096,-0.9429
02:26:58.507,-0.1406,0.2002,-1.0698
02:26:58.518,-0.0396,0.0200,-1.2515
02:26:58.529,0.0381,-0.0361,-1.6567
02:26:58.540,0.0322,-0.0620,-1.9541
02:26:58.552,-0.0425,-0.1255,-2.2695
02:26:58.563,-0.1172,-0.2554,-2.6841
02:26:58.576,-0.0083,-0.3198,-2.9448
02:26:58.589,0.1201,-0.3911,-3.2383
02:26:58.605,0.2314,-0.3594,-3.4614
02:26:58.616,0.2778,-0.3872,-3.4482
02:26:58.628,0.3066,-0.5093,-3.4668
02:26:58.640,0.3242,-0.7061,-3.3755
02:26:58.652,0.3818,-0.8662,-3.2524
02:26:58.665,0.3647,-0.9292,-2.9692
02:26:58.678,0.3354,-0.8467,-2.8188
02:26:58.691,0.2676,-0.7041,-2.4624
02:26:58.703,0.1704,-0.7310,-2.1323
02:26:58.716,0.1787,-0.6333,-1.7827
02:26:58.728,-0.0088,-0.6826,-1.3643
02:26:58.741,-0.0166,-0.7437,-0.9800
02:26:58.754,-0.0908,-0.5713,-0.6934
02:26:58.769,-0.0698,-0.3271,-0.4297
02:26:58.780,-0.0444,-0.1196,-0.2549
02:26:58.794,-0.0547,-0.0347,-0.1177
02:26:58.806,0.0283,0.0210,-0.0366
02:26:58.819,0.0171,0.0117,-0.0322
02:26:58.830,0.0146,0.0010,-0.0288
02:26:58.841,0.0254,-0.0010,0.0088
02:26:58.853,0.0576,0.0068,-0.0698
02:26:58.865,0.0176,0.0049,-0.0342
02:26:58.876,0.0024,-0.0054,-0.0210
02:26:58.887,0.0078,-0.0029,-0.0269
02:26:58.900,-0.0020,0.0312,-0.0449
02:26:58.913,0.0063,-0.0059,-0.0337
02:26:58.926,-0.0005,0.0005,-0.0312
02:26:58.939,0.0093,-0.0039,-0.0254
02:26:58.950,0.0127,-0.0020,-0.0210
02:26:58.961,0.0054,0.0024,-0.0283
02:26:58.973,0.0103,0.0005,-0.0371
02:26:58.986,0.0044,-0.0054,-0.0400
02:26:58.997,0.0293,-0.0078,-0.0049
02:26:59.009,0.0518,0.0273,-0.0200
02:26:59.020,-0.0024,-0.0142,-0.0127
02:26:59.033,0.0176,-0.0049,-0.0200
02:26:59.044,0.0830,-0.0112,-0.0581
02:26:59.057,0.1514,0.0225,-0.1172
02:26:59.071,0.3076,0.0869,-0.1196
02:26:59.084,0.2603,0.1484,-0.2017
02:26:59.109,-0.1787,-0.1685,-0.3877
02:26:59.120,-0.2832,-0.3398,-0.6123
02:26:59.134,-0.0640,0.0034,-0.3003
02:26:59.145,0.0430,-0.0386,-0.1660
02:26:59.156,0.0400,0.0122,-0.3574
02:26:59.168,0.0713,0.0884,-0.6177
02:26:59.179,0.0718,0.0693,-0.8062
02:26:59.193,0.0698,-0.0269,-1.0410
02:26:59.205,0.0879,-0.1738,-1.3833
02:26:59.216,0.0928,-0.3125,-1.7710
02:26:59.227,0.0225,-0.4268,-2.1787
02:26:59.239,0.0522,-0.5957,-2.4189
02:26:59.251,0.1748,-0.4272,-2.7129
02:26:59.265,0.2822,-0.4600,-3.0439
02:26:59.277,0.4834,-0.5674,-3.3608
02:26:59.288,0.7095,-0.5137,-3.3530
02:26:59.299,0.8154,-0.6455,-3.3525
02:26:59.310,0.9033,-0.7373,-3.3359
02:26:59.321,1.0405,-0.8320,-3.3003
02:26:59.332,1.1836,-0.9551,-3.1924
02:26:59.344,1.2144,-1.0049,-3.0522
02:26:59.361,1.1846,-1.0229,-2.6592
02:26:59.372,1.1436,-1.0400,-2.3457
02:26:59.384,0.9893,-0.8770,-2.1567
02:26:59.395,0.9756,-0.8306,-1.8315
02:26:59.406,0.8257,-0.7129,-1.6167
02:26:59.418,0.6680,-0.6616,-1.3711
02:26:59.432,0.4873,-0.3354,-1.0654
02:26:59.443,0.3745,-0.2432,-0.7021
02:26:59.456,0.1294,-0.1450,-0.2837
02:26:59.468,0.0293,-0.0293,-0.0186
02:26:59.480,0.0288,-0.0146,0.0005
02:26:59.493,0.0381,-0.0205,0.0073
02:26:59.506,0.0303,-0.0190,0.0068
02:26:59.518,0.0171,-0.0054,0.0186
02:26:59.531,0.0469,-0.0142,-0.0034
02:26:59.545,0.0439,-0.0112,0.0059
02:26:59.557,0.0352,-0.0220,-0.0225
02:26:59.569,0.0127,-0.0195,-0.0176
02:26:59.582,0.0474,-0.0249,0.0547
02:26:59.595,0.0073,-0.0103,-0.0195
02:26:59.608,0.0366,-0.0205,-0.0112
02:26:59.620,0.0288,-0.0254,-0.0117
02:26:59.634,0.0337,-0.0166,-0.0161
02:26:59.648,0.0034,-0.0327,-0.0078
02:26:59.662,0.0249,-0.0205,0.0068
02:26:59.673,0.0059,-0.0171,-0.0078
02:26:59.685,0.0508,-0.0249,0.0430
02:26:59.701,0.3628,0.1133,0.1753
02:26:59.712,0.1699,-0.1255,0.0898
02:26:59.726,0.0874,-0.0923,0.1069
02:26:59.738,-0.0630,-0.3208,0.0654
02:26:59.750,0.0391,-0.3472,0.1050
02:26:59.763,0.0850,-0.0830,-0.2739
02:26:59.775,0.1060,0.0342,-0.3115
02:26:59.787,-0.0801,0.2339,-0.5298
02:26:59.801,-0.1582,0.5264,-0.6543
02:26:59.813,-0.0977,0.7085,-0.6465
02:26:59.826,0.0054,0.9170,-0.6025
02:26:59.837,0.0049,0.9395,-0.5845
02:26:59.848,-0.0566,0.9209,-0.6064
02:26:59.859,-0.1235,0.8779,-0.6123
02:26:59.871,-0.1699,0.7334,-0.7358
02:26:59.882,-0.0645,0.6919,-0.8979
02:26:59.893,-0.0884,0.4531,-1.0493
02:26:59.906,-0.0503,0.4614,-1.0566
02:26:59.921,0.0410,0.3657,-1.0933
02:26:59.932,0.2402,0.3408,-1.3374
02:26:59.944,0.5239,0.6646,-1.7524
02:26:59.956,0.6245,0.9419,-2.0928
02:26:59.969,0.6270,0.9878,-2.3008
02:26:59.981,0.7358,0.9282,-2.4146
02:26:59.994,0.8833,0.9897,-2.5132
02:27:00.006,0.9902,1.0347,-2.5454
02:27:00.017,0.9995,0.9277,-2.5596
02:27:00.030,0.8965,0.7461,-2.6050
02:27:00.041,0.8252,0.6562,-2.6831
02:27:00.053,0.7988,0.5879,-2.7593
02:27:00.064,0.8735,0.5547,-2.7178
02:27:00.075,0.9189,0.4277,-2.6426
02:27:00.088,0.8623,0.3013,-2.5723
02:27:00.100,0.8281,0.1709,-2.4404
02:27:00.113,0.7227,0.1025,-2.3237
02:27:00.125,0.7402,0.1123,-2.1440
02:27:00.140,0.6206,0.0684,-1.8628
02:27:00.151,0.5122,0.0435,-1.6240
02:27:00.163,0.3955,0.0146,-1.2710
02:27:00.175,0.2490,-0.0615,-1.0088
02:27:00.189,0.0688,-0.2173,-0.4238
02:27:00.201,-0.0439,-0.1050,-0.1499
02:27:00.213,-0.0146,-0.0610,-0.0938
02:27:00.225,0.0112,-0.0273,-0.0581
02:27:00.236,0.0220,-0.0073,-0.0259
02:27:00.247,0.0249,-0.0142,-0.0264
02:27:00.259,0.0547,0.0669,0.0010
02:27:00.271,0.0283,0.0039,-0.0229
02:27:00.283,0.0269,-0.0034,-0.0205
02:27:00.295,0.0298,-0.0010,-0.0161
02:27:00.306,0.0220,0.0029,-0.0176
02:27:00.318,0.0068,-0.0073,-0.0332
02:27:00.329,0.0112,-0.0010,-0.0337
02:27:00.340,0.0200,0.0000,-0.0229
02:27:00.351,0.0142,-0.0044,-0.0117
02:27:00.362,0.0122,-0.0112,0.0186
02:27:00.375,0.0107,0.0010,-0.0054
02:27:00.387,-0.0127,0.0088,-0.0703
02:27:00.400,0.0381,0.0015,-0.0117
02:27:00.412,-0.0249,-0.0571,0.0386
02:27:00.423,-0.0122,-0.0352,-0.0410
02:27:00.435,-0.0469,-0.0547,-0.0356
02:27:00.446,-0.1138,-0.1509,-0.0264
02:27:00.457,0.0903,0.1919,0.0132
02:27:00.468,-0.2036,-0.0518,-0.0259
02:27:00.479,-0.1362,0.3247,-0.0762
02:27:00.495,-0.1025,0.4282,-0.3467
02:27:00.509,-0.0186,0.3926,-0.6294
02:27:00.522,-0.0938,0.0825,-0.5327
02:27:00.533,-0.1963,0.2065,-0.3721
02:27:00.545,-0.2109,0.2568,-0.2324
02:27:00.557,-0.2778,0.0376,-0.3511
02:27:00.568,-0.3374,-0.1899,-0.3618
02:27:00.580,-0.4487,-0.1738,-0.4634
02:27:00.591,-0.5034,-0.0991,-0.6162
02:27:00.604,-0.4043,-0.2056,-0.8096
02:27:00.615,-0.3315,-0.3833,-1.0083
02:27:00.628,-0.4551,-0.7056,-1.1436
02:27:00.642,-0.5005,-1.0713,-1.3574
02:27:00.654,-0.3789,-1.1323,-1.7295
02:27:00.666,-0.2305,-1.2847,-2.0581
02:27:00.682,-0.1167,-1.5776,-2.3281
02:27:00.693,-0.0698,-1.9077,-2.5537
02:27:00.707,-0.0386,-2.0083,-2.6763
02:27:00.720,0.0117,-1.9766,-2.7656
02:27:00.731,0.0894,-1.9482,-2.8364
02:27:00.744,0.0508,-1.9307,-2.7422
02:27:00.756,0.0415,-1.9351,-2.6274
02:27:00.767,0.0566,-1.9136,-2.5000
02:27:00.778,0.0659,-1.8164,-2.3037
02:27:00.792,0.0034,-1.7559,-2.1650
02:27:00.803,-0.0234,-1.5947,-1.9229
02:27:00.815,-0.0518,-1.4438,-1.8027
02:27:00.826,-0.0303,-1.3672,-1.4502
02:27:00.841,-0.0366,-1.1729,-1.2124
02:27:00.852,-0.0610,-0.9961,-0.8286
02:27:00.864,-0.0728,-0.7710,-0.7456
02:27:00.876,-0.0332,-0.5630,-0.5718
02:27:00.890,0.0645,-0.4448,-0.3037
02:27:00.903,0.0825,-0.2397,-0.1987
02:27:00.914,0.0815,-0.1797,-0.1201
02:27:00.927,0.0327,0.0127,0.0024
02:27:00.944,0.0293,-0.0024,-0.0127
02:27:00.956,0.0190,0.0117,0.0498
02:27:00.970,-0.0059,0.0000,-0.0112
02:27:00.983,-0.0137,-0.0176,-0.0332
02:27:00.995,0.0132,0.0010,-0.0098
02:27:01.007,0.0146,0.0020,-0.0098
02:27:01.020,0.0107,0.0107,0.0005
02:27:01.033,0.0244,-0.0054,0.0010
02:27:01.049,0.0195,0.0122,0.0063
02:27:01.061,0.0083,-0.0029,0.0020
02:27:01.075,0.0005,-0.0020,-0.0132
02:27:01.087,0.0493,0.0708,0.0518
02:27:01.100,0.0122,0.0029,-0.0010
02:27:01.112,0.0181,0.0059,-0.0020
02:27:01.127,0.1484,0.0020,-0.0684
02:27:01.139,0.1431,0.0669,-0.1294
02:27:01.151,-0.4766,-0.0674,-0.8105
02:27:01.163,0.3491,0.5962,-0.4097
02:27:01.174,0.4058,0.1919,-0.0981
02:27:01.188,-0.0469,0.3232,-0.2432
02:27:01.199,-0.0557,-0.1050,-0.4019
02:27:01.211,0.0615,0.1753,-0.3726
02:27:01.222,0.0879,0.5103,-0.5483
02:27:01.233,0.0786,0.6904,-0.6235
02:27:01.244,-0.0371,0.7852,-0.6470
02:27:01.257,-0.0728,0.8530,-0.7139
02:27:01.270,-0.0903,0.8296,-0.7500
02:27:01.281,-0.0488,0.5840,-0.7197
02:27:01.292,0.0200,0.4756,-0.7695
02:27:01.303,0.0151,0.3784,-0.8867
02:27:01.314,-0.0186,0.4194,-1.0630
02:27:01.328,-0.0376,0.6064,-1.3286
02:27:01.340,-0.0020,0.7876,-1.6445
02:27:01.351,-0.0830,0.7427,-2.0605
02:27:01.362,-0.1309,0.5249,-2.2207
02:27:01.373,-0.1099,0.3232,-2.4141
02:27:01.385,-0.0234,0.4214,-2.7109
02:27:01.398,0.0381,0.3760,-2.8979
02:27:01.410,0.0918,0.2773,-2.9346
02:27:01.422,0.0439,0.1562,-3.0234
02:27:01.434,0.0195,0.0542,-3.0308
02:27:01.445,0.0498,0.0127,-2.9521
02:27:01.457,0.1201,-0.0576,-2.8301
02:27:01.470,0.2324,-0.0908,-2.6772
02:27:01.482,0.2969,-0.1201,-2.5337
02:27:01.493,0.3213,-0.1348,-2.3545
02:27:01.504,0.3364,-0.1919,-2.1118
02:27:01.518,0.3086,-0.1602,-1.8384
02:27:01.529,0.3105,-0.2866,-1.4961
02:27:01.541,0.2739,-0.1880,-1.1890
02:27:01.552,0.1924,-0.0991,-0.9531
02:27:01.565,0.1523,0.0151,-0.7451
02:27:01.576,0.1113,0.1157,-0.2568
02:27:01.589,0.0200,-0.0312,-0.0366
02:27:01.601,0.0254,-0.0127,-0.0195
02:27:01.613,0.0049,-0.0039,-0.0220
02:27:01.624,0.0220,-0.0068,-0.0215
02:27:01.635,0.0112,-0.0073,-0.0156
02:27:01.648,0.0215,-0.0127,-0.0117
02:27:01.659,0.0249,0.0200,-0.0229
02:27:01.670,0.0073,-0.0103,-0.0103
02:27:01.684,0.0142,-0.0063,-0.0083
02:27:01.696,0.0122,-0.0010,-0.0322
02:27:01.708,0.0107,-0.0059,-0.0210
02:27:01.722,0.0132,-0.0068,-0.0259
02:27:01.734,0.0195,-0.0059,-0.0205
02:27:01.745,0.0229,-0.0020,-0.0015
02:27:01.757,0.0317,-0.0200,0.0049
02:27:01.769,0.0146,-0.0059,-0.0259
02:27:01.780,0.0210,-0.0034,-0.0161
02:27:01.791,0.0278,-0.0059,-0.0098
02:27:01.803,0.0186,-0.0044,-0.0112
02:27:01.817,0.4673,0.1470,0.1045
02:27:01.828,0.2998,0.0063,-0.0376
02:27:01.840,-0.0581,0.0952,-0.1504
02:27:01.852,-0.0659,0.5361,-0.5498
02:27:01.864,-0.0410,0.3535,-0.5552
02:27:01.877,-0.2598,0.1831,-0.3525
02:27:01.888,-0.1621,0.0239,-0.3408
02:27:01.899,-0.1729,0.0566,-0.4556
02:27:01.911,-0.1528,0.2505,-0.7207
02:27:01.926,-0.1997,0.0967,-0.8774
02:27:01.937,-0.3550,-0.1260,-1.0659
02:27:01.948,-0.3350,-0.1279,-1.1030
02:27:01.960,-0.3481,-0.1582,-1.2388
02:27:01.971,-0.3203,-0.3379,-1.4170
02:27:01.982,-0.2534,-0.4814,-1.6641
02:27:01.996,-0.2129,-0.5620,-1.9907
02:27:02.007,-0.1899,-0.6489,-2.2656
02:27:02.019,-0.1279,-0.6729,-2.5396
02:27:02.030,-0.0186,-0.6753,-2.8506
02:27:02.042,0.1265,-0.6802,-3.0747
02:27:02.055,0.1924,-0.5957,-3.1958
02:27:02.068,0.2466,-0.5889,-3.1855
02:27:02.082,0.2510,-0.5034,-3.2080
02:27:02.096,0.3579,-0.5576,-3.2603
02:27:02.108,0.4136,-0.5981,-3.2490
02:27:02.122,0.5415,-0.6328,-3.0425
02:27:02.134,0.5659,-0.5537,-2.7681
02:27:02.148,0.5732,-0.6934,-2.3247
02:27:02.159,0.5508,-0.7798,-1.9751
02:27:02.172,0.4619,-0.6816,-1.7939
02:27:02.183,0.3096,-0.5767,-1.3950
02:27:02.194,0.2827,-0.5942,-1.1411
02:27:02.207,0.2397,-0.4434,-0.7627
02:27:02.218,0.2119,-0.3232,-0.4912
02:27:02.229,0.1035,-0.1318,-0.2690
02:27:02.243,0.0645,-0.0376,-0.1338
02:27:02.255,0.0005,-0.0186,-0.0767
02:27:02.267,0.0156,-0.0107,-0.0308
02:27:02.281,0.0132,-0.0103,-0.0239
02:27:02.292,0.0146,-0.0020,-0.0249
02:27:02.304,0.0225,-0.0132,-0.0117
02:27:02.315,0.0122,-0.0073,-0.0220
02:27:02.329,0.0161,-0.0093,-0.0151
02:27:02.340,0.0337,-0.0273,-0.0034
02:27:02.353,0.0151,-0.0122,-0.0391
02:27:02.365,0.0156,-0.0034,-0.0176
02:27:02.377,0.0254,-0.0142,-0.0015
02:27:02.389,0.0200,-0.0063,-0.0317
02:27:02.401,0.0259,-0.0020,-0.0205
02:27:02.412,0.0166,-0.0078,-0.0293
02:27:02.424,-0.0005,0.0005,-0.0410
02:27:02.435,0.0112,-0.0137,-0.0288
02:27:02.447,0.0186,-0.0078,-0.0264
02:27:02.462,0.0420,-0.0303,-0.0015
02:27:02.474,0.0078,-0.0044,-0.0381
02:27:02.487,0.1499,0.1025,0.0645
02:27:02.500,0.2432,0.1533,0.0098
02:27:02.515,-0.4048,-0.7080,-0.4028
02:27:02.527,-0.1499,0.4512,-0.6597
02:27:02.540,-0.2397,0.3086,-1.1133
02:27:02.557,-0.4399,0.1011,-0.4272
02:27:02.569,-0.3340,0.1240,-0.2837
02:27:02.580,-0.2246,0.0962,-0.3511
02:27:02.592,-0.1636,0.1021,-0.5142
02:27:02.603,-0.1045,0.0859,-0.5337
02:27:02.614,-0.1821,0.1475,-0.6602
02:27:02.627,-0.3354,0.2773,-0.8486
02:27:02.641,-0.4097,0.2949,-1.1147
02:27:02.655,-0.3267,0.0884,-1.2549
02:27:02.666,-0.2778,-0.2124,-1.5049
02:27:02.677,-0.2021,-0.5093,-1.7930
02:27:02.688,-0.1157,-0.7471,-2.0283
02:27:02.700,0.0122,-0.9014,-2.2344
02:27:02.711,0.1543,-1.0464,-2.5151
02:27:02.722,0.2812,-1.3276,-2.7852
02:27:02.736,0.4141,-1.5615,-2.9702
02:27:02.747,0.5688,-1.6001,-3.0830
02:27:02.758,0.6216,-1.4624,-3.1108
02:27:02.770,0.6953,-1.3477,-3.0449
